Frequency(Hz),Magnitude(dB)
0.00,-0.00
0.50,-0.00
1.00,-0.00
1.50,-0.00
2.00,-0.00
2.50,-0.00
3.00,-0.00
3.50,-0.00
4.00,-0.00
4.50,-0.00
5.00,-0.00
5.50,-0.00
6.00,-0.00
6.50,-0.00
7.00,-0.00
7.50,-0.00
8.00,-0.00
8.50,-0.00
9.00,-0.00
9.50,-0.00
10.00,-0.00
10.50,-0.00
11.00,-0.00
11.50,-0.00
12.00,-0.00
12.50,-0.00
13.00,-0.00
13.50,-0.00
14.00,-0.00
14.50,-0.00
15.00,-0.00
15.50,-0.00
16.00,-0.00
16.50,-0.00
17.00,-0.00
17.50,-0.00
18.00,-0.00
18.50,-0.00
19.00,-0.00
19.50,-0.00
20.00,-0.00
20.50,-0.00
21.00,-0.00
21.50,-0.00
22.00,-0.00
22.50,-0.00
23.00,-0.00
23.50,-0.00
24.00,-0.00
24.50,-0.00
25.00,-0.00
25.50,-0.00
26.00,-0.00
26.50,-0.00
27.00,-0.00
27.50,-0.00
28.00,-0.00
28.50,-0.00
29.00,-0.00
29.50,-0.00
30.00,-0.00
30.50,-0.00
31.00,-0.00
31.50,-0.00
32.00,-0.00
32.50,-0.00
33.00,-0.00
33.50,-0.00
34.00,-0.00
34.50,-0.00
35.00,-0.00
35.50,-0.00
36.00,-0.00
36.50,-0.00
37.00,-0.00
37.50,-0.00
38.00,-0.00
38.50,-0.00
39.00,-0.00
39.50,-0.00
40.01,-0.00
40.51,-0.00
41.01,-0.00
41.51,-0.00
42.01,-0.00
42.51,-0.00
43.01,-0.00
43.51,-0.00
44.01,-0.00
44.51,-0.00
45.01,-0.00
45.51,-0.00
46.01,-0.00
46.51,-0.00
47.01,-0.00
47.51,-0.00
48.01,-0.00
48.51,-0.00
49.01,-0.00
49.51,-0.00
50.01,-0.00
50.51,-0.00
51.01,-0.00
51.51,-0.00
52.01,-0.00
52.51,-0.00
53.01,-0.00
53.51,-0.00
54.01,-0.00
54.51,-0.00
55.01,-0.00
55.51,-0.00
56.01,-0.00
56.51,-0.00
57.01,-0.00
57.51,-0.00
58.01,-0.00
58.51,-0.00
59.01,-0.00
59.51,-0.00
60.01,-0.00
60.51,-0.00
61.01,-0.01
61.51,-0.01
62.01,-0.01
62.51,-0.01
63.01,-0.01
63.51,-0.01
64.01,-0.01
64.51,-0.01
65.01,-0.01
65.51,-0.01
66.01,-0.01
66.51,-0.01
67.01,-0.01
67.51,-0.01
68.01,-0.01
68.51,-0.01
69.01,-0.01
69.51,-0.01
70.01,-0.01
70.51,-0.01
71.01,-0.01
71.51,-0.01
72.01,-0.01
72.51,-0.01
73.01,-0.01
73.51,-0.01
74.01,-0.01
74.51,-0.01
75.01,-0.01
75.51,-0.01
76.01,-0.01
76.51,-0.01
77.01,-0.01
77.51,-0.01
78.01,-0.01
78.51,-0.01
79.01,-0.01
79.51,-0.01
80.01,-0.01
80.51,-0.01
81.01,-0.01
81.51,-0.01
82.01,-0.01
82.51,-0.01
83.01,-0.01
83.51,-0.01
84.01,-0.01
84.51,-0.01
85.01,-0.01
85.51,-0.01
86.01,-0.01
86.51,-0.01
87.01,-0.01
87.51,-0.01
88.01,-0.01
88.51,-0.01
89.01,-0.01
89.51,-0.01
90.01,-0.01
90.51,-0.01
91.01,-0.01
91.51,-0.01
92.01,-0.01
92.51,-0.01
93.01,-0.01
93.51,-0.01
94.01,-0.01
94.51,-0.01
95.01,-0.01
95.51,-0.01
96.01,-0.01
96.51,-0.01
97.01,-0.01
97.51,-0.01
98.01,-0.01
98.51,-0.01
99.01,-0.01
99.51,-0.01
100.01,-0.01
100.51,-0.01
101.01,-0.01
101.51,-0.01
102.01,-0.01
102.51,-0.01
103.01,-0.01
103.51,-0.01
104.01,-0.01
104.51,-0.01
105.01,-0.01
105.51,-0.02
106.01,-0.02
106.51,-0.02
107.01,-0.02
107.51,-0.02
108.01,-0.02
108.51,-0.02
109.01,-0.02
109.51,-0.02
110.01,-0.02
110.51,-0.02
111.01,-0.02
111.51,-0.02
112.01,-0.02
112.51,-0.02
113.01,-0.02
113.51,-0.02
114.01,-0.02
114.51,-0.02
115.01,-0.02
115.51,-0.02
116.01,-0.02
116.51,-0.02
117.01,-0.02
117.51,-0.02
118.01,-0.02
118.51,-0.02
119.01,-0.02
119.51,-0.02
120.02,-0.02
120.52,-0.02
121.02,-0.02
121.52,-0.02
122.02,-0.02
122.52,-0.02
123.02,-0.02
123.52,-0.02
124.02,-0.02
124.52,-0.02
125.02,-0.02
125.52,-0.02
126.02,-0.02
126.52,-0.02
127.02,-0.02
127.52,-0.02
128.02,-0.02
128.52,-0.02
129.02,-0.02
129.52,-0.02
130.02,-0.02
130.52,-0.02
131.02,-0.02
131.52,-0.02
132.02,-0.02
132.52,-0.02
133.02,-0.02
133.52,-0.02
134.02,-0.02
134.52,-0.02
135.02,-0.02
135.52,-0.03
136.02,-0.03
136.52,-0.03
137.02,-0.03
137.52,-0.03
138.02,-0.03
138.52,-0.03
139.02,-0.03
139.52,-0.03
140.02,-0.03
140.52,-0.03
141.02,-0.03
141.52,-0.03
142.02,-0.03
142.52,-0.03
143.02,-0.03
143.52,-0.03
144.02,-0.03
144.52,-0.03
145.02,-0.03
145.52,-0.03
146.02,-0.03
146.52,-0.03
147.02,-0.03
147.52,-0.03
148.02,-0.03
148.52,-0.03
149.02,-0.03
149.52,-0.03
150.02,-0.03
150.52,-0.03
151.02,-0.03
151.52,-0.03
152.02,-0.03
152.52,-0.03
153.02,-0.03
153.52,-0.03
154.02,-0.03
154.52,-0.03
155.02,-0.03
155.52,-0.03
156.02,-0.03
156.52,-0.03
157.02,-0.03
157.52,-0.03
158.02,-0.03
158.52,-0.03
159.02,-0.03
159.52,-0.04
160.02,-0.04
160.52,-0.04
161.02,-0.04
161.52,-0.04
162.02,-0.04
162.52,-0.04
163.02,-0.04
163.52,-0.04
164.02,-0.04
164.52,-0.04
165.02,-0.04
165.52,-0.04
166.02,-0.04
166.52,-0.04
167.02,-0.04
167.52,-0.04
168.02,-0.04
168.52,-0.04
169.02,-0.04
169.52,-0.04
170.02,-0.04
170.52,-0.04
171.02,-0.04
171.52,-0.04
172.02,-0.04
172.52,-0.04
173.02,-0.04
173.52,-0.04
174.02,-0.04
174.52,-0.04
175.02,-0.04
175.52,-0.04
176.02,-0.04
176.52,-0.04
177.02,-0.04
177.52,-0.04
178.02,-0.04
178.52,-0.04
179.02,-0.04
179.52,-0.04
180.02,-0.04
180.52,-0.05
181.02,-0.05
181.52,-0.05
182.02,-0.05
182.52,-0.05
183.02,-0.05
183.52,-0.05
184.02,-0.05
184.52,-0.05
185.02,-0.05
185.52,-0.05
186.02,-0.05
186.52,-0.05
187.02,-0.05
187.52,-0.05
188.02,-0.05
188.52,-0.05
189.02,-0.05
189.52,-0.05
190.02,-0.05
190.52,-0.05
191.02,-0.05
191.52,-0.05
192.02,-0.05
192.52,-0.05
193.02,-0.05
193.52,-0.05
194.02,-0.05
194.52,-0.05
195.02,-0.05
195.52,-0.05
196.02,-0.05
196.52,-0.05
197.02,-0.05
197.52,-0.05
198.02,-0.05
198.52,-0.06
199.02,-0.06
199.52,-0.06
200.03,-0.06
200.53,-0.06
201.03,-0.06
201.53,-0.06
202.03,-0.06
202.53,-0.06
203.03,-0.06
203.53,-0.06
204.03,-0.06
204.53,-0.06
205.03,-0.06
205.53,-0.06
206.03,-0.06
206.53,-0.06
207.03,-0.06
207.53,-0.06
208.03,-0.06
208.53,-0.06
209.03,-0.06
209.53,-0.06
210.03,-0.06
210.53,-0.06
211.03,-0.06
211.53,-0.06
212.03,-0.06
212.53,-0.06
213.03,-0.06
213.53,-0.06
214.03,-0.06
214.53,-0.06
215.03,-0.07
215.53,-0.07
216.03,-0.07
216.53,-0.07
217.03,-0.07
217.53,-0.07
218.03,-0.07
218.53,-0.07
219.03,-0.07
219.53,-0.07
220.03,-0.07
220.53,-0.07
221.03,-0.07
221.53,-0.07
222.03,-0.07
222.53,-0.07
223.03,-0.07
223.53,-0.07
224.03,-0.07
224.53,-0.07
225.03,-0.07
225.53,-0.07
226.03,-0.07
226.53,-0.07
227.03,-0.07
227.53,-0.07
228.03,-0.07
228.53,-0.07
229.03,-0.07
229.53,-0.07
230.03,-0.07
230.53,-0.08
231.03,-0.08
231.53,-0.08
232.03,-0.08
232.53,-0.08
233.03,-0.08
233.53,-0.08
234.03,-0.08
234.53,-0.08
235.03,-0.08
235.53,-0.08
236.03,-0.08
236.53,-0.08
237.03,-0.08
237.53,-0.08
238.03,-0.08
238.53,-0.08
239.03,-0.08
239.53,-0.08
240.03,-0.08
240.53,-0.08
241.03,-0.08
241.53,-0.08
242.03,-0.08
242.53,-0.08
243.03,-0.08
243.53,-0.08
244.03,-0.08
244.53,-0.09
245.03,-0.09
245.53,-0.09
246.03,-0.09
246.53,-0.09
247.03,-0.09
247.53,-0.09
248.03,-0.09
248.53,-0.09
249.03,-0.09
249.53,-0.09
250.03,-0.09
250.53,-0.09
251.03,-0.09
251.53,-0.09
252.03,-0.09
252.53,-0.09
253.03,-0.09
253.53,-0.09
254.03,-0.09
254.53,-0.09
255.03,-0.09
255.53,-0.09
256.03,-0.09
256.53,-0.09
257.03,-0.09
257.53,-0.10
258.03,-0.10
258.53,-0.10
259.03,-0.10
259.53,-0.10
260.03,-0.10
260.53,-0.10
261.03,-0.10
261.53,-0.10
262.03,-0.10
262.53,-0.10
263.03,-0.10
263.53,-0.10
264.03,-0.10
264.53,-0.10
265.03,-0.10
265.53,-0.10
266.03,-0.10
266.53,-0.10
267.03,-0.10
267.53,-0.10
268.03,-0.10
268.53,-0.10
269.03,-0.10
269.53,-0.11
270.03,-0.11
270.53,-0.11
271.03,-0.11
271.53,-0.11
272.03,-0.11
272.53,-0.11
273.03,-0.11
273.53,-0.11
274.03,-0.11
274.53,-0.11
275.03,-0.11
275.53,-0.11
276.03,-0.11
276.53,-0.11
277.03,-0.11
277.53,-0.11
278.03,-0.11
278.53,-0.11
279.03,-0.11
279.53,-0.11
280.04,-0.11
280.54,-0.11
281.04,-0.11
281.54,-0.12
282.04,-0.12
282.54,-0.12
283.04,-0.12
283.54,-0.12
284.04,-0.12
284.54,-0.12
285.04,-0.12
285.54,-0.12
286.04,-0.12
286.54,-0.12
287.04,-0.12
287.54,-0.12
288.04,-0.12
288.54,-0.12
289.04,-0.12
289.54,-0.12
290.04,-0.12
290.54,-0.12
291.04,-0.12
291.54,-0.12
292.04,-0.12
292.54,-0.13
293.04,-0.13
293.54,-0.13
294.04,-0.13
294.54,-0.13
295.04,-0.13
295.54,-0.13
296.04,-0.13
296.54,-0.13
297.04,-0.13
297.54,-0.13
298.04,-0.13
298.54,-0.13
299.04,-0.13
299.54,-0.13
300.04,-0.13
300.54,-0.13
301.04,-0.13
301.54,-0.13
302.04,-0.13
302.54,-0.13
303.04,-0.14
303.54,-0.14
304.04,-0.14
304.54,-0.14
305.04,-0.14
305.54,-0.14
306.04,-0.14
306.54,-0.14
307.04,-0.14
307.54,-0.14
308.04,-0.14
308.54,-0.14
309.04,-0.14
309.54,-0.14
310.04,-0.14
310.54,-0.14
311.04,-0.14
311.54,-0.14
312.04,-0.14
312.54,-0.14
313.04,-0.15
313.54,-0.15
314.04,-0.15
314.54,-0.15
315.04,-0.15
315.54,-0.15
316.04,-0.15
316.54,-0.15
317.04,-0.15
317.54,-0.15
318.04,-0.15
318.54,-0.15
319.04,-0.15
319.54,-0.15
320.04,-0.15
320.54,-0.15
321.04,-0.15
321.54,-0.15
322.04,-0.15
322.54,-0.16
323.04,-0.16
323.54,-0.16
324.04,-0.16
324.54,-0.16
325.04,-0.16
325.54,-0.16
326.04,-0.16
326.54,-0.16
327.04,-0.16
327.54,-0.16
328.04,-0.16
328.54,-0.16
329.04,-0.16
329.54,-0.16
330.04,-0.16
330.54,-0.16
331.04,-0.16
331.54,-0.17
332.04,-0.17
332.54,-0.17
333.04,-0.17
333.54,-0.17
334.04,-0.17
334.54,-0.17
335.04,-0.17
335.54,-0.17
336.04,-0.17
336.54,-0.17
337.04,-0.17
337.54,-0.17
338.04,-0.17
338.54,-0.17
339.04,-0.17
339.54,-0.17
340.04,-0.17
340.54,-0.18
341.04,-0.18
341.54,-0.18
342.04,-0.18
342.54,-0.18
343.04,-0.18
343.54,-0.18
344.04,-0.18
344.54,-0.18
345.04,-0.18
345.54,-0.18
346.04,-0.18
346.54,-0.18
347.04,-0.18
347.54,-0.18
348.04,-0.18
348.54,-0.18
349.04,-0.19
349.54,-0.19
350.04,-0.19
350.54,-0.19
351.04,-0.19
351.54,-0.19
352.04,-0.19
352.54,-0.19
353.04,-0.19
353.54,-0.19
354.04,-0.19
354.54,-0.19
355.04,-0.19
355.54,-0.19
356.04,-0.19
356.54,-0.19
357.04,-0.19
357.54,-0.20
358.04,-0.20
358.54,-0.20
359.04,-0.20
359.54,-0.20
360.05,-0.20
360.55,-0.20
361.05,-0.20
361.55,-0.20
362.05,-0.20
362.55,-0.20
363.05,-0.20
363.55,-0.20
364.05,-0.20
364.55,-0.20
365.05,-0.20
365.55,-0.21
366.05,-0.21
366.55,-0.21
367.05,-0.21
367.55,-0.21
368.05,-0.21
368.55,-0.21
369.05,-0.21
369.55,-0.21
370.05,-0.21
370.55,-0.21
371.05,-0.21
371.55,-0.21
372.05,-0.21
372.55,-0.21
373.05,-0.22
373.55,-0.22
374.05,-0.22
374.55,-0.22
375.05,-0.22
375.55,-0.22
376.05,-0.22
376.55,-0.22
377.05,-0.22
377.55,-0.22
378.05,-0.22
378.55,-0.22
379.05,-0.22
379.55,-0.22
380.05,-0.22
380.55,-0.23
381.05,-0.23
381.55,-0.23
382.05,-0.23
382.55,-0.23
383.05,-0.23
383.55,-0.23
384.05,-0.23
384.55,-0.23
385.05,-0.23
385.55,-0.23
386.05,-0.23
386.55,-0.23
387.05,-0.23
387.55,-0.23
388.05,-0.24
388.55,-0.24
389.05,-0.24
389.55,-0.24
390.05,-0.24
390.55,-0.24
391.05,-0.24
391.55,-0.24
392.05,-0.24
392.55,-0.24
393.05,-0.24
393.55,-0.24
394.05,-0.24
394.55,-0.24
395.05,-0.25
395.55,-0.25
396.05,-0.25
396.55,-0.25
397.05,-0.25
397.55,-0.25
398.05,-0.25
398.55,-0.25
399.05,-0.25
399.55,-0.25
400.05,-0.25
400.55,-0.25
401.05,-0.25
401.55,-0.25
402.05,-0.26
402.55,-0.26
403.05,-0.26
403.55,-0.26
404.05,-0.26
404.55,-0.26
405.05,-0.26
405.55,-0.26
406.05,-0.26
406.55,-0.26
407.05,-0.26
407.55,-0.26
408.05,-0.26
408.55,-0.27
409.05,-0.27
409.55,-0.27
410.05,-0.27
410.55,-0.27
411.05,-0.27
411.55,-0.27
412.05,-0.27
412.55,-0.27
413.05,-0.27
413.55,-0.27
414.05,-0.27
414.55,-0.27
415.05,-0.28
415.55,-0.28
416.05,-0.28
416.55,-0.28
417.05,-0.28
417.55,-0.28
418.05,-0.28
418.55,-0.28
419.05,-0.28
419.55,-0.28
420.05,-0.28
420.55,-0.28
421.05,-0.28
421.55,-0.29
422.05,-0.29
422.55,-0.29
423.05,-0.29
423.55,-0.29
424.05,-0.29
424.55,-0.29
425.05,-0.29
425.55,-0.29
426.05,-0.29
426.55,-0.29
427.05,-0.29
427.55,-0.29
428.05,-0.30
428.55,-0.30
429.05,-0.30
429.55,-0.30
430.05,-0.30
430.55,-0.30
431.05,-0.30
431.55,-0.30
432.05,-0.30
432.55,-0.30
433.05,-0.30
433.55,-0.30
434.05,-0.31
434.55,-0.31
435.05,-0.31
435.55,-0.31
436.05,-0.31
436.55,-0.31
437.05,-0.31
437.55,-0.31
438.05,-0.31
438.55,-0.31
439.05,-0.31
439.55,-0.31
440.06,-0.32
440.56,-0.32
441.06,-0.32
441.56,-0.32
442.06,-0.32
442.56,-0.32
443.06,-0.32
443.56,-0.32
444.06,-0.32
444.56,-0.32
445.06,-0.32
445.56,-0.33
446.06,-0.33
446.56,-0.33
447.06,-0.33
447.56,-0.33
448.06,-0.33
448.56,-0.33
449.06,-0.33
449.56,-0.33
450.06,-0.33
450.56,-0.33
451.06,-0.33
451.56,-0.34
452.06,-0.34
452.56,-0.34
453.06,-0.34
453.56,-0.34
454.06,-0.34
454.56,-0.34
455.06,-0.34
455.56,-0.34
456.06,-0.34
456.56,-0.34
457.06,-0.35
457.56,-0.35
458.06,-0.35
458.56,-0.35
459.06,-0.35
459.56,-0.35
460.06,-0.35
460.56,-0.35
461.06,-0.35
461.56,-0.35
462.06,-0.35
462.56,-0.36
463.06,-0.36
463.56,-0.36
464.06,-0.36
464.56,-0.36
465.06,-0.36
465.56,-0.36
466.06,-0.36
466.56,-0.36
467.06,-0.36
467.56,-0.36
468.06,-0.37
468.56,-0.37
469.06,-0.37
469.56,-0.37
470.06,-0.37
470.56,-0.37
471.06,-0.37
471.56,-0.37
472.06,-0.37
472.56,-0.37
473.06,-0.38
473.56,-0.38
474.06,-0.38
474.56,-0.38
475.06,-0.38
475.56,-0.38
476.06,-0.38
476.56,-0.38
477.06,-0.38
477.56,-0.38
478.06,-0.38
478.56,-0.39
479.06,-0.39
479.56,-0.39
480.06,-0.39
480.56,-0.39
481.06,-0.39
481.56,-0.39
482.06,-0.39
482.56,-0.39
483.06,-0.39
483.56,-0.40
484.06,-0.40
484.56,-0.40
485.06,-0.40
485.56,-0.40
486.06,-0.40
486.56,-0.40
487.06,-0.40
487.56,-0.40
488.06,-0.40
488.56,-0.41
489.06,-0.41
489.56,-0.41
490.06,-0.41
490.56,-0.41
491.06,-0.41
491.56,-0.41
492.06,-0.41
492.56,-0.41
493.06,-0.42
493.56,-0.42
494.06,-0.42
494.56,-0.42
495.06,-0.42
495.56,-0.42
496.06,-0.42
496.56,-0.42
497.06,-0.42
497.56,-0.42
498.06,-0.43
498.56,-0.43
499.06,-0.43
499.56,-0.43
500.06,-0.43
500.56,-0.43
501.06,-0.43
501.56,-0.43
502.06,-0.43
502.56,-0.43
503.06,-0.44
503.56,-0.44
504.06,-0.44
504.56,-0.44
505.06,-0.44
505.56,-0.44
506.06,-0.44
506.56,-0.44
507.06,-0.44
507.56,-0.45
508.06,-0.45
508.56,-0.45
509.06,-0.45
509.56,-0.45
510.06,-0.45
510.56,-0.45
511.06,-0.45
511.56,-0.45
512.06,-0.46
512.56,-0.46
513.06,-0.46
513.56,-0.46
514.06,-0.46
514.56,-0.46
515.06,-0.46
515.56,-0.46
516.06,-0.46
516.56,-0.47
517.06,-0.47
517.56,-0.47
518.06,-0.47
518.56,-0.47
519.06,-0.47
519.56,-0.47
520.07,-0.47
520.57,-0.47
521.07,-0.48
521.57,-0.48
522.07,-0.48
522.57,-0.48
523.07,-0.48
523.57,-0.48
524.07,-0.48
524.57,-0.48
525.07,-0.48
525.57,-0.49
526.07,-0.49
526.57,-0.49
527.07,-0.49
527.57,-0.49
528.07,-0.49
528.57,-0.49
529.07,-0.49
529.57,-0.50
530.07,-0.50
530.57,-0.50
531.07,-0.50
531.57,-0.50
532.07,-0.50
532.57,-0.50
533.07,-0.50
533.57,-0.50
534.07,-0.51
534.57,-0.51
535.07,-0.51
535.57,-0.51
536.07,-0.51
536.57,-0.51
537.07,-0.51
537.57,-0.51
538.07,-0.52
538.57,-0.52
539.07,-0.52
539.57,-0.52
540.07,-0.52
540.57,-0.52
541.07,-0.52
541.57,-0.52
542.07,-0.53
542.57,-0.53
543.07,-0.53
543.57,-0.53
544.07,-0.53
544.57,-0.53
545.07,-0.53
545.57,-0.53
546.07,-0.54
546.57,-0.54
547.07,-0.54
547.57,-0.54
548.07,-0.54
548.57,-0.54
549.07,-0.54
549.57,-0.54
550.07,-0.55
550.57,-0.55
551.07,-0.55
551.57,-0.55
552.07,-0.55
552.57,-0.55
553.07,-0.55
553.57,-0.55
554.07,-0.56
554.57,-0.56
555.07,-0.56
555.57,-0.56
556.07,-0.56
556.57,-0.56
557.07,-0.56
557.57,-0.56
558.07,-0.57
558.57,-0.57
559.07,-0.57
559.57,-0.57
560.07,-0.57
560.57,-0.57
561.07,-0.57
561.57,-0.57
562.07,-0.58
562.57,-0.58
563.07,-0.58
563.57,-0.58
564.07,-0.58
564.57,-0.58
565.07,-0.58
565.57,-0.59
566.07,-0.59
566.57,-0.59
567.07,-0.59
567.57,-0.59
568.07,-0.59
568.57,-0.59
569.07,-0.59
569.57,-0.60
570.07,-0.60
570.57,-0.60
571.07,-0.60
571.57,-0.60
572.07,-0.60
572.57,-0.60
573.07,-0.61
573.57,-0.61
574.07,-0.61
574.57,-0.61
575.07,-0.61
575.57,-0.61
576.07,-0.61
576.57,-0.62
577.07,-0.62
577.57,-0.62
578.07,-0.62
578.57,-0.62
579.07,-0.62
579.57,-0.62
580.07,-0.62
580.57,-0.63
581.07,-0.63
581.57,-0.63
582.07,-0.63
582.57,-0.63
583.07,-0.63
583.57,-0.63
584.07,-0.64
584.57,-0.64
585.07,-0.64
585.57,-0.64
586.07,-0.64
586.57,-0.64
587.07,-0.64
587.57,-0.65
588.07,-0.65
588.57,-0.65
589.07,-0.65
589.57,-0.65
590.07,-0.65
590.57,-0.65
591.07,-0.66
591.57,-0.66
592.07,-0.66
592.57,-0.66
593.07,-0.66
593.57,-0.66
594.07,-0.66
594.57,-0.67
595.07,-0.67
595.57,-0.67
596.07,-0.67
596.57,-0.67
597.07,-0.67
597.57,-0.68
598.07,-0.68
598.57,-0.68
599.07,-0.68
599.57,-0.68
600.08,-0.68
600.58,-0.68
601.08,-0.69
601.58,-0.69
602.08,-0.69
602.58,-0.69
603.08,-0.69
603.58,-0.69
604.08,-0.69
604.58,-0.70
605.08,-0.70
605.58,-0.70
606.08,-0.70
606.58,-0.70
607.08,-0.70
607.58,-0.71
608.08,-0.71
608.58,-0.71
609.08,-0.71
609.58,-0.71
610.08,-0.71
610.58,-0.71
611.08,-0.72
611.58,-0.72
612.08,-0.72
612.58,-0.72
613.08,-0.72
613.58,-0.72
614.08,-0.73
614.58,-0.73
615.08,-0.73
615.58,-0.73
616.08,-0.73
616.58,-0.73
617.08,-0.73
617.58,-0.74
618.08,-0.74
618.58,-0.74
619.08,-0.74
619.58,-0.74
620.08,-0.74
620.58,-0.75
621.08,-0.75
621.58,-0.75
622.08,-0.75
622.58,-0.75
623.08,-0.75
623.58,-0.76
624.08,-0.76
624.58,-0.76
625.08,-0.76
625.58,-0.76
626.08,-0.76
626.58,-0.77
627.08,-0.77
627.58,-0.77
628.08,-0.77
628.58,-0.77
629.08,-0.77
629.58,-0.77
630.08,-0.78
630.58,-0.78
631.08,-0.78
631.58,-0.78
632.08,-0.78
632.58,-0.78
633.08,-0.79
633.58,-0.79
634.08,-0.79
634.58,-0.79
635.08,-0.79
635.58,-0.79
636.08,-0.80
636.58,-0.80
637.08,-0.80
637.58,-0.80
638.08,-0.80
638.58,-0.80
639.08,-0.81
639.58,-0.81
640.08,-0.81
640.58,-0.81
641.08,-0.81
641.58,-0.82
642.08,-0.82
642.58,-0.82
643.08,-0.82
643.58,-0.82
644.08,-0.82
644.58,-0.83
645.08,-0.83
645.58,-0.83
646.08,-0.83
646.58,-0.83
647.08,-0.83
647.58,-0.84
648.08,-0.84
648.58,-0.84
649.08,-0.84
649.58,-0.84
650.08,-0.84
650.58,-0.85
651.08,-0.85
651.58,-0.85
652.08,-0.85
652.58,-0.85
653.08,-0.86
653.58,-0.86
654.08,-0.86
654.58,-0.86
655.08,-0.86
655.58,-0.86
656.08,-0.87
656.58,-0.87
657.08,-0.87
657.58,-0.87
658.08,-0.87
658.58,-0.87
659.08,-0.88
659.58,-0.88
660.08,-0.88
660.58,-0.88
661.08,-0.88
661.58,-0.89
662.08,-0.89
662.58,-0.89
663.08,-0.89
663.58,-0.89
664.08,-0.89
664.58,-0.90
665.08,-0.90
665.58,-0.90
666.08,-0.90
666.58,-0.90
667.08,-0.91
667.58,-0.91
668.08,-0.91
668.58,-0.91
669.08,-0.91
669.58,-0.92
670.08,-0.92
670.58,-0.92
671.08,-0.92
671.58,-0.92
672.08,-0.92
672.58,-0.93
673.08,-0.93
673.58,-0.93
674.08,-0.93
674.58,-0.93
675.08,-0.94
675.58,-0.94
676.08,-0.94
676.58,-0.94
677.08,-0.94
677.58,-0.95
678.08,-0.95
678.58,-0.95
679.08,-0.95
679.58,-0.95
680.09,-0.96
680.59,-0.96
681.09,-0.96
681.59,-0.96
682.09,-0.96
682.59,-0.96
683.09,-0.97
683.59,-0.97
684.09,-0.97
684.59,-0.97
685.09,-0.97
685.59,-0.98
686.09,-0.98
686.59,-0.98
687.09,-0.98
687.59,-0.98
688.09,-0.99
688.59,-0.99
689.09,-0.99
689.59,-0.99
690.09,-0.99
690.59,-1.00
691.09,-1.00
691.59,-1.00
692.09,-1.00
692.59,-1.00
693.09,-1.01
693.59,-1.01
694.09,-1.01
694.59,-1.01
695.09,-1.01
695.59,-1.02
696.09,-1.02
696.59,-1.02
697.09,-1.02
697.59,-1.02
698.09,-1.03
698.59,-1.03
699.09,-1.03
699.59,-1.03
700.09,-1.03
700.59,-1.04
701.09,-1.04
701.59,-1.04
702.09,-1.04
702.59,-1.05
703.09,-1.05
703.59,-1.05
704.09,-1.05
704.59,-1.05
705.09,-1.06
705.59,-1.06
706.09,-1.06
706.59,-1.06
707.09,-1.06
707.59,-1.07
708.09,-1.07
708.59,-1.07
709.09,-1.07
709.59,-1.07
710.09,-1.08
710.59,-1.08
711.09,-1.08
711.59,-1.08
712.09,-1.09
712.59,-1.09
713.09,-1.09
713.59,-1.09
714.09,-1.09
714.59,-1.10
715.09,-1.10
715.59,-1.10
716.09,-1.10
716.59,-1.10
717.09,-1.11
717.59,-1.11
718.09,-1.11
718.59,-1.11
719.09,-1.12
719.59,-1.12
720.09,-1.12
720.59,-1.12
721.09,-1.12
721.59,-1.13
722.09,-1.13
722.59,-1.13
723.09,-1.13
723.59,-1.14
724.09,-1.14
724.59,-1.14
725.09,-1.14
725.59,-1.14
726.09,-1.15
726.59,-1.15
727.09,-1.15
727.59,-1.15
728.09,-1.16
728.59,-1.16
729.09,-1.16
729.59,-1.16
730.09,-1.16
730.59,-1.17
731.09,-1.17
731.59,-1.17
732.09,-1.17
732.59,-1.18
733.09,-1.18
733.59,-1.18
734.09,-1.18
734.59,-1.18
735.09,-1.19
735.59,-1.19
736.09,-1.19
736.59,-1.19
737.09,-1.20
737.59,-1.20
738.09,-1.20
738.59,-1.20
739.09,-1.21
739.59,-1.21
740.09,-1.21
740.59,-1.21
741.09,-1.21
741.59,-1.22
742.09,-1.22
742.59,-1.22
743.09,-1.22
743.59,-1.23
744.09,-1.23
744.59,-1.23
745.09,-1.23
745.59,-1.24
746.09,-1.24
746.59,-1.24
747.09,-1.24
747.59,-1.25
748.09,-1.25
748.59,-1.25
749.09,-1.25
749.59,-1.25
750.09,-1.26
750.59,-1.26
751.09,-1.26
751.59,-1.26
752.09,-1.27
752.59,-1.27
753.09,-1.27
753.59,-1.27
754.09,-1.28
754.59,-1.28
755.09,-1.28
755.59,-1.28
756.09,-1.29
756.59,-1.29
757.09,-1.29
757.59,-1.29
758.09,-1.30
758.59,-1.30
759.09,-1.30
759.59,-1.30
760.10,-1.31
760.60,-1.31
761.10,-1.31
761.60,-1.31
762.10,-1.32
762.60,-1.32
763.10,-1.32
763.60,-1.32
764.10,-1.33
764.60,-1.33
765.10,-1.33
765.60,-1.33
766.10,-1.34
766.60,-1.34
767.10,-1.34
767.60,-1.34
768.10,-1.35
768.60,-1.35
769.10,-1.35
769.60,-1.35
770.10,-1.36
770.60,-1.36
771.10,-1.36
771.60,-1.36
772.10,-1.37
772.60,-1.37
773.10,-1.37
773.60,-1.37
774.10,-1.38
774.60,-1.38
775.10,-1.38
775.60,-1.38
776.10,-1.39
776.60,-1.39
777.10,-1.39
777.60,-1.39
778.10,-1.40
778.60,-1.40
779.10,-1.40
779.60,-1.41
780.10,-1.41
780.60,-1.41
781.10,-1.41
781.60,-1.42
782.10,-1.42
782.60,-1.42
783.10,-1.42
783.60,-1.43
784.10,-1.43
784.60,-1.43
785.10,-1.43
785.60,-1.44
786.10,-1.44
786.60,-1.44
787.10,-1.45
787.60,-1.45
788.10,-1.45
788.60,-1.45
789.10,-1.46
789.60,-1.46
790.10,-1.46
790.60,-1.46
791.10,-1.47
791.60,-1.47
792.10,-1.47
792.60,-1.47
793.10,-1.48
793.60,-1.48
794.10,-1.48
794.60,-1.49
795.10,-1.49
795.60,-1.49
796.10,-1.49
796.60,-1.50
797.10,-1.50
797.60,-1.50
798.10,-1.51
798.60,-1.51
799.10,-1.51
799.60,-1.51
800.10,-1.52
800.60,-1.52
801.10,-1.52
801.60,-1.52
802.10,-1.53
802.60,-1.53
803.10,-1.53
803.60,-1.54
804.10,-1.54
804.60,-1.54
805.10,-1.54
805.60,-1.55
806.10,-1.55
806.60,-1.55
807.10,-1.56
807.60,-1.56
808.10,-1.56
808.60,-1.56
809.10,-1.57
809.60,-1.57
810.10,-1.57
810.60,-1.58
811.10,-1.58
811.60,-1.58
812.10,-1.58
812.60,-1.59
813.10,-1.59
813.60,-1.59
814.10,-1.60
814.60,-1.60
815.10,-1.60
815.60,-1.60
816.10,-1.61
816.60,-1.61
817.10,-1.61
817.60,-1.62
818.10,-1.62
818.60,-1.62
819.10,-1.63
819.60,-1.63
820.10,-1.63
820.60,-1.63
821.10,-1.64
821.60,-1.64
822.10,-1.64
822.60,-1.65
823.10,-1.65
823.60,-1.65
824.10,-1.65
824.60,-1.66
825.10,-1.66
825.60,-1.66
826.10,-1.67
826.60,-1.67
827.10,-1.67
827.60,-1.68
828.10,-1.68
828.60,-1.68
829.10,-1.69
829.60,-1.69
830.10,-1.69
830.60,-1.69
831.10,-1.70
831.60,-1.70
832.10,-1.70
832.60,-1.71
833.10,-1.71
833.60,-1.71
834.10,-1.72
834.60,-1.72
835.10,-1.72
835.60,-1.72
836.10,-1.73
836.60,-1.73
837.10,-1.73
837.60,-1.74
838.10,-1.74
838.60,-1.74
839.10,-1.75
839.60,-1.75
840.11,-1.75
840.61,-1.76
841.11,-1.76
841.61,-1.76
842.11,-1.77
842.61,-1.77
843.11,-1.77
843.61,-1.77
844.11,-1.78
844.61,-1.78
845.11,-1.78
845.61,-1.79
846.11,-1.79
846.61,-1.79
847.11,-1.80
847.61,-1.80
848.11,-1.80
848.61,-1.81
849.11,-1.81
849.61,-1.81
850.11,-1.82
850.61,-1.82
851.11,-1.82
851.61,-1.83
852.11,-1.83
852.61,-1.83
853.11,-1.84
853.61,-1.84
854.11,-1.84
854.61,-1.85
855.11,-1.85
855.61,-1.85
856.11,-1.86
856.61,-1.86
857.11,-1.86
857.61,-1.87
858.11,-1.87
858.61,-1.87
859.11,-1.88
859.61,-1.88
860.11,-1.88
860.61,-1.88
861.11,-1.89
861.61,-1.89
862.11,-1.89
862.61,-1.90
863.11,-1.90
863.61,-1.90
864.11,-1.91
864.61,-1.91
865.11,-1.92
865.61,-1.92
866.11,-1.92
866.61,-1.93
867.11,-1.93
867.61,-1.93
868.11,-1.94
868.61,-1.94
869.11,-1.94
869.61,-1.95
870.11,-1.95
870.61,-1.95
871.11,-1.96
871.61,-1.96
872.11,-1.96
872.61,-1.97
873.11,-1.97
873.61,-1.97
874.11,-1.98
874.61,-1.98
875.11,-1.98
875.61,-1.99
876.11,-1.99
876.61,-1.99
877.11,-2.00
877.61,-2.00
878.11,-2.00
878.61,-2.01
879.11,-2.01
879.61,-2.01
880.11,-2.02
880.61,-2.02
881.11,-2.02
881.61,-2.03
882.11,-2.03
882.61,-2.04
883.11,-2.04
883.61,-2.04
884.11,-2.05
884.61,-2.05
885.11,-2.05
885.61,-2.06
886.11,-2.06
886.61,-2.06
887.11,-2.07
887.61,-2.07
888.11,-2.07
888.61,-2.08
889.11,-2.08
889.61,-2.09
890.11,-2.09
890.61,-2.09
891.11,-2.10
891.61,-2.10
892.11,-2.10
892.61,-2.11
893.11,-2.11
893.61,-2.11
894.11,-2.12
894.61,-2.12
895.11,-2.13
895.61,-2.13
896.11,-2.13
896.61,-2.14
897.11,-2.14
897.61,-2.14
898.11,-2.15
898.61,-2.15
899.11,-2.15
899.61,-2.16
900.11,-2.16
900.61,-2.17
901.11,-2.17
901.61,-2.17
902.11,-2.18
902.61,-2.18
903.11,-2.18
903.61,-2.19
904.11,-2.19
904.61,-2.20
905.11,-2.20
905.61,-2.20
906.11,-2.21
906.61,-2.21
907.11,-2.21
907.61,-2.22
908.11,-2.22
908.61,-2.23
909.11,-2.23
909.61,-2.23
910.11,-2.24
910.61,-2.24
911.11,-2.24
911.61,-2.25
912.11,-2.25
912.61,-2.26
913.11,-2.26
913.61,-2.26
914.11,-2.27
914.61,-2.27
915.11,-2.28
915.61,-2.28
916.11,-2.28
916.61,-2.29
917.11,-2.29
917.61,-2.29
918.11,-2.30
918.61,-2.30
919.11,-2.31
919.61,-2.31
920.12,-2.31
920.62,-2.32
921.12,-2.32
921.62,-2.33
922.12,-2.33
922.62,-2.33
923.12,-2.34
923.62,-2.34
924.12,-2.35
924.62,-2.35
925.12,-2.35
925.62,-2.36
926.12,-2.36
926.62,-2.37
927.12,-2.37
927.62,-2.37
928.12,-2.38
928.62,-2.38
929.12,-2.39
929.62,-2.39
930.12,-2.39
930.62,-2.40
931.12,-2.40
931.62,-2.41
932.12,-2.41
932.62,-2.41
933.12,-2.42
933.62,-2.42
934.12,-2.43
934.62,-2.43
935.12,-2.43
935.62,-2.44
936.12,-2.44
936.62,-2.45
937.12,-2.45
937.62,-2.45
938.12,-2.46
938.62,-2.46
939.12,-2.47
939.62,-2.47
940.12,-2.48
940.62,-2.48
941.12,-2.48
941.62,-2.49
942.12,-2.49
942.62,-2.50
943.12,-2.50
943.62,-2.50
944.12,-2.51
944.62,-2.51
945.12,-2.52
945.62,-2.52
946.12,-2.53
946.62,-2.53
947.12,-2.53
947.62,-2.54
948.12,-2.54
948.62,-2.55
949.12,-2.55
949.62,-2.55
950.12,-2.56
950.62,-2.56
951.12,-2.57
951.62,-2.57
952.12,-2.58
952.62,-2.58
953.12,-2.58
953.62,-2.59
954.12,-2.59
954.62,-2.60
955.12,-2.60
955.62,-2.61
956.12,-2.61
956.62,-2.61
957.12,-2.62
957.62,-2.62
958.12,-2.63
958.62,-2.63
959.12,-2.64
959.62,-2.64
960.12,-2.64
960.62,-2.65
961.12,-2.65
961.62,-2.66
962.12,-2.66
962.62,-2.67
963.12,-2.67
963.62,-2.68
964.12,-2.68
964.62,-2.68
965.12,-2.69
965.62,-2.69
966.12,-2.70
966.62,-2.70
967.12,-2.71
967.62,-2.71
968.12,-2.71
968.62,-2.72
969.12,-2.72
969.62,-2.73
970.12,-2.73
970.62,-2.74
971.12,-2.74
971.62,-2.75
972.12,-2.75
972.62,-2.76
973.12,-2.76
973.62,-2.76
974.12,-2.77
974.62,-2.77
975.12,-2.78
975.62,-2.78
976.12,-2.79
976.62,-2.79
977.12,-2.80
977.62,-2.80
978.12,-2.81
978.62,-2.81
979.12,-2.81
979.62,-2.82
980.12,-2.82
980.62,-2.83
981.12,-2.83
981.62,-2.84
982.12,-2.84
982.62,-2.85
983.12,-2.85
983.62,-2.86
984.12,-2.86
984.62,-2.86
985.12,-2.87
985.62,-2.87
986.12,-2.88
986.62,-2.88
987.12,-2.89
987.62,-2.89
988.12,-2.90
988.62,-2.90
989.12,-2.91
989.62,-2.91
990.12,-2.92
990.62,-2.92
991.12,-2.93
991.62,-2.93
992.12,-2.94
992.62,-2.94
993.12,-2.94
993.62,-2.95
994.12,-2.95
994.62,-2.96
995.12,-2.96
995.62,-2.97
996.12,-2.97
996.62,-2.98
997.12,-2.98
997.62,-2.99
998.12,-2.99
998.62,-3.00
999.12,-3.00
999.62,-3.01
1000.13,-3.01
1000.63,-3.02
1001.13,-3.02
1001.63,-3.03
1002.13,-3.03
1002.63,-3.04
1003.13,-3.04
1003.63,-3.05
1004.13,-3.05
1004.63,-3.06
1005.13,-3.06
1005.63,-3.06
1006.13,-3.07
1006.63,-3.07
1007.13,-3.08
1007.63,-3.08
1008.13,-3.09
1008.63,-3.09
1009.13,-3.10
1009.63,-3.10
1010.13,-3.11
1010.63,-3.11
1011.13,-3.12
1011.63,-3.12
1012.13,-3.13
1012.63,-3.13
1013.13,-3.14
1013.63,-3.14
1014.13,-3.15
1014.63,-3.15
1015.13,-3.16
1015.63,-3.16
1016.13,-3.17
1016.63,-3.17
1017.13,-3.18
1017.63,-3.18
1018.13,-3.19
1018.63,-3.19
1019.13,-3.20
1019.63,-3.20
1020.13,-3.21
1020.63,-3.21
1021.13,-3.22
1021.63,-3.22
1022.13,-3.23
1022.63,-3.23
1023.13,-3.24
1023.63,-3.25
1024.13,-3.25
1024.63,-3.26
1025.13,-3.26
1025.63,-3.27
1026.13,-3.27
1026.63,-3.28
1027.13,-3.28
1027.63,-3.29
1028.13,-3.29
1028.63,-3.30
1029.13,-3.30
1029.63,-3.31
1030.13,-3.31
1030.63,-3.32
1031.13,-3.32
1031.63,-3.33
1032.13,-3.33
1032.63,-3.34
1033.13,-3.34
1033.63,-3.35
1034.13,-3.35
1034.63,-3.36
1035.13,-3.36
1035.63,-3.37
1036.13,-3.38
1036.63,-3.38
1037.13,-3.39
1037.63,-3.39
1038.13,-3.40
1038.63,-3.40
1039.13,-3.41
1039.63,-3.41
1040.13,-3.42
1040.63,-3.42
1041.13,-3.43
1041.63,-3.43
1042.13,-3.44
1042.63,-3.44
1043.13,-3.45
1043.63,-3.46
1044.13,-3.46
1044.63,-3.47
1045.13,-3.47
1045.63,-3.48
1046.13,-3.48
1046.63,-3.49
1047.13,-3.49
1047.63,-3.50
1048.13,-3.50
1048.63,-3.51
1049.13,-3.51
1049.63,-3.52
1050.13,-3.53
1050.63,-3.53
1051.13,-3.54
1051.63,-3.54
1052.13,-3.55
1052.63,-3.55
1053.13,-3.56
1053.63,-3.56
1054.13,-3.57
1054.63,-3.58
1055.13,-3.58
1055.63,-3.59
1056.13,-3.59
1056.63,-3.60
1057.13,-3.60
1057.63,-3.61
1058.13,-3.61
1058.63,-3.62
1059.13,-3.63
1059.63,-3.63
1060.13,-3.64
1060.63,-3.64
1061.13,-3.65
1061.63,-3.65
1062.13,-3.66
1062.63,-3.66
1063.13,-3.67
1063.63,-3.68
1064.13,-3.68
1064.63,-3.69
1065.13,-3.69
1065.63,-3.70
1066.13,-3.70
1066.63,-3.71
1067.13,-3.72
1067.63,-3.72
1068.13,-3.73
1068.63,-3.73
1069.13,-3.74
1069.63,-3.74
1070.13,-3.75
1070.63,-3.76
1071.13,-3.76
1071.63,-3.77
1072.13,-3.77
1072.63,-3.78
1073.13,-3.78
1073.63,-3.79
1074.13,-3.80
1074.63,-3.80
1075.13,-3.81
1075.63,-3.81
1076.13,-3.82
1076.63,-3.83
1077.13,-3.83
1077.63,-3.84
1078.13,-3.84
1078.63,-3.85
1079.13,-3.85
1079.63,-3.86
1080.14,-3.87
1080.64,-3.87
1081.14,-3.88
1081.64,-3.88
1082.14,-3.89
1082.64,-3.90
1083.14,-3.90
1083.64,-3.91
1084.14,-3.91
1084.64,-3.92
1085.14,-3.93
1085.64,-3.93
1086.14,-3.94
1086.64,-3.94
1087.14,-3.95
1087.64,-3.95
1088.14,-3.96
1088.64,-3.97
1089.14,-3.97
1089.64,-3.98
1090.14,-3.98
1090.64,-3.99
1091.14,-4.00
1091.64,-4.00
1092.14,-4.01
1092.64,-4.02
1093.14,-4.02
1093.64,-4.03
1094.14,-4.03
1094.64,-4.04
1095.14,-4.05
1095.64,-4.05
1096.14,-4.06
1096.64,-4.06
1097.14,-4.07
1097.64,-4.08
1098.14,-4.08
1098.64,-4.09
1099.14,-4.09
1099.64,-4.10
1100.14,-4.11
1100.64,-4.11
1101.14,-4.12
1101.64,-4.13
1102.14,-4.13
1102.64,-4.14
1103.14,-4.14
1103.64,-4.15
1104.14,-4.16
1104.64,-4.16
1105.14,-4.17
1105.64,-4.18
1106.14,-4.18
1106.64,-4.19
1107.14,-4.19
1107.64,-4.20
1108.14,-4.21
1108.64,-4.21
1109.14,-4.22
1109.64,-4.23
1110.14,-4.23
1110.64,-4.24
1111.14,-4.24
1111.64,-4.25
1112.14,-4.26
1112.64,-4.26
1113.14,-4.27
1113.64,-4.28
1114.14,-4.28
1114.64,-4.29
1115.14,-4.29
1115.64,-4.30
1116.14,-4.31
1116.64,-4.31
1117.14,-4.32
1117.64,-4.33
1118.14,-4.33
1118.64,-4.34
1119.14,-4.35
1119.64,-4.35
1120.14,-4.36
1120.64,-4.37
1121.14,-4.37
1121.64,-4.38
1122.14,-4.39
1122.64,-4.39
1123.14,-4.40
1123.64,-4.40
1124.14,-4.41
1124.64,-4.42
1125.14,-4.42
1125.64,-4.43
1126.14,-4.44
1126.64,-4.44
1127.14,-4.45
1127.64,-4.46
1128.14,-4.46
1128.64,-4.47
1129.14,-4.48
1129.64,-4.48
1130.14,-4.49
1130.64,-4.50
1131.14,-4.50
1131.64,-4.51
1132.14,-4.52
1132.64,-4.52
1133.14,-4.53
1133.64,-4.54
1134.14,-4.54
1134.64,-4.55
1135.14,-4.56
1135.64,-4.56
1136.14,-4.57
1136.64,-4.58
1137.14,-4.58
1137.64,-4.59
1138.14,-4.60
1138.64,-4.60
1139.14,-4.61
1139.64,-4.62
1140.14,-4.62
1140.64,-4.63
1141.14,-4.64
1141.64,-4.64
1142.14,-4.65
1142.64,-4.66
1143.14,-4.66
1143.64,-4.67
1144.14,-4.68
1144.64,-4.68
1145.14,-4.69
1145.64,-4.70
1146.14,-4.71
1146.64,-4.71
1147.14,-4.72
1147.64,-4.73
1148.14,-4.73
1148.64,-4.74
1149.14,-4.75
1149.64,-4.75
1150.14,-4.76
1150.64,-4.77
1151.14,-4.77
1151.64,-4.78
1152.14,-4.79
1152.64,-4.79
1153.14,-4.80
1153.64,-4.81
1154.14,-4.82
1154.64,-4.82
1155.14,-4.83
1155.64,-4.84
1156.14,-4.84
1156.64,-4.85
1157.14,-4.86
1157.64,-4.86
1158.14,-4.87
1158.64,-4.88
1159.14,-4.89
1159.64,-4.89
1160.15,-4.90
1160.65,-4.91
1161.15,-4.91
1161.65,-4.92
1162.15,-4.93
1162.65,-4.94
1163.15,-4.94
1163.65,-4.95
1164.15,-4.96
1164.65,-4.96
1165.15,-4.97
1165.65,-4.98
1166.15,-4.99
1166.65,-4.99
1167.15,-5.00
1167.65,-5.01
1168.15,-5.01
1168.65,-5.02
1169.15,-5.03
1169.65,-5.04
1170.15,-5.04
1170.65,-5.05
1171.15,-5.06
1171.65,-5.06
1172.15,-5.07
1172.65,-5.08
1173.15,-5.09
1173.65,-5.09
1174.15,-5.10
1174.65,-5.11
1175.15,-5.12
1175.65,-5.12
1176.15,-5.13
1176.65,-5.14
1177.15,-5.14
1177.65,-5.15
1178.15,-5.16
1178.65,-5.17
1179.15,-5.17
1179.65,-5.18
1180.15,-5.19
1180.65,-5.20
1181.15,-5.20
1181.65,-5.21
1182.15,-5.22
1182.65,-5.23
1183.15,-5.23
1183.65,-5.24
1184.15,-5.25
1184.65,-5.26
1185.15,-5.26
1185.65,-5.27
1186.15,-5.28
1186.65,-5.29
1187.15,-5.29
1187.65,-5.30
1188.15,-5.31
1188.65,-5.32
1189.15,-5.32
1189.65,-5.33
1190.15,-5.34
1190.65,-5.35
1191.15,-5.35
1191.65,-5.36
1192.15,-5.37
1192.65,-5.38
1193.15,-5.38
1193.65,-5.39
1194.15,-5.40
1194.65,-5.41
1195.15,-5.41
1195.65,-5.42
1196.15,-5.43
1196.65,-5.44
1197.15,-5.45
1197.65,-5.45
1198.15,-5.46
1198.65,-5.47
1199.15,-5.48
1199.65,-5.48
1200.15,-5.49
1200.65,-5.50
1201.15,-5.51
1201.65,-5.51
1202.15,-5.52
1202.65,-5.53
1203.15,-5.54
1203.65,-5.55
1204.15,-5.55
1204.65,-5.56
1205.15,-5.57
1205.65,-5.58
1206.15,-5.58
1206.65,-5.59
1207.15,-5.60
1207.65,-5.61
1208.15,-5.62
1208.65,-5.62
1209.15,-5.63
1209.65,-5.64
1210.15,-5.65
1210.65,-5.66
1211.15,-5.66
1211.65,-5.67
1212.15,-5.68
1212.65,-5.69
1213.15,-5.69
1213.65,-5.70
1214.15,-5.71
1214.65,-5.72
1215.15,-5.73
1215.65,-5.73
1216.15,-5.74
1216.65,-5.75
1217.15,-5.76
1217.65,-5.77
1218.15,-5.77
1218.65,-5.78
1219.15,-5.79
1219.65,-5.80
1220.15,-5.81
1220.65,-5.81
1221.15,-5.82
1221.65,-5.83
1222.15,-5.84
1222.65,-5.85
1223.15,-5.86
1223.65,-5.86
1224.15,-5.87
1224.65,-5.88
1225.15,-5.89
1225.65,-5.90
1226.15,-5.90
1226.65,-5.91
1227.15,-5.92
1227.65,-5.93
1228.15,-5.94
1228.65,-5.94
1229.15,-5.95
1229.65,-5.96
1230.15,-5.97
1230.65,-5.98
1231.15,-5.99
1231.65,-5.99
1232.15,-6.00
1232.65,-6.01
1233.15,-6.02
1233.65,-6.03
1234.15,-6.04
1234.65,-6.04
1235.15,-6.05
1235.65,-6.06
1236.15,-6.07
1236.65,-6.08
1237.15,-6.09
1237.65,-6.09
1238.15,-6.10
1238.65,-6.11
1239.15,-6.12
1239.65,-6.13
1240.16,-6.14
1240.66,-6.14
1241.16,-6.15
1241.66,-6.16
1242.16,-6.17
1242.66,-6.18
1243.16,-6.19
1243.66,-6.19
1244.16,-6.20
1244.66,-6.21
1245.16,-6.22
1245.66,-6.23
1246.16,-6.24
1246.66,-6.25
1247.16,-6.25
1247.66,-6.26
1248.16,-6.27
1248.66,-6.28
1249.16,-6.29
1249.66,-6.30
1250.16,-6.31
1250.66,-6.31
1251.16,-6.32
1251.66,-6.33
1252.16,-6.34
1252.66,-6.35
1253.16,-6.36
1253.66,-6.37
1254.16,-6.37
1254.66,-6.38
1255.16,-6.39
1255.66,-6.40
1256.16,-6.41
1256.66,-6.42
1257.16,-6.43
1257.66,-6.43
1258.16,-6.44
1258.66,-6.45
1259.16,-6.46
1259.66,-6.47
1260.16,-6.48
1260.66,-6.49
1261.16,-6.50
1261.66,-6.50
1262.16,-6.51
1262.66,-6.52
1263.16,-6.53
1263.66,-6.54
1264.16,-6.55
1264.66,-6.56
1265.16,-6.57
1265.66,-6.58
1266.16,-6.58
1266.66,-6.59
1267.16,-6.60
1267.66,-6.61
1268.16,-6.62
1268.66,-6.63
1269.16,-6.64
1269.66,-6.65
1270.16,-6.66
1270.66,-6.66
1271.16,-6.67
1271.66,-6.68
1272.16,-6.69
1272.66,-6.70
1273.16,-6.71
1273.66,-6.72
1274.16,-6.73
1274.66,-6.74
1275.16,-6.75
1275.66,-6.75
1276.16,-6.76
1276.66,-6.77
1277.16,-6.78
1277.66,-6.79
1278.16,-6.80
1278.66,-6.81
1279.16,-6.82
1279.66,-6.83
1280.16,-6.84
1280.66,-6.85
1281.16,-6.85
1281.66,-6.86
1282.16,-6.87
1282.66,-6.88
1283.16,-6.89
1283.66,-6.90
1284.16,-6.91
1284.66,-6.92
1285.16,-6.93
1285.66,-6.94
1286.16,-6.95
1286.66,-6.96
1287.16,-6.96
1287.66,-6.97
1288.16,-6.98
1288.66,-6.99
1289.16,-7.00
1289.66,-7.01
1290.16,-7.02
1290.66,-7.03
1291.16,-7.04
1291.66,-7.05
1292.16,-7.06
1292.66,-7.07
1293.16,-7.08
1293.66,-7.09
1294.16,-7.09
1294.66,-7.10
1295.16,-7.11
1295.66,-7.12
1296.16,-7.13
1296.66,-7.14
1297.16,-7.15
1297.66,-7.16
1298.16,-7.17
1298.66,-7.18
1299.16,-7.19
1299.66,-7.20
1300.16,-7.21
1300.66,-7.22
1301.16,-7.23
1301.66,-7.24
1302.16,-7.25
1302.66,-7.26
1303.16,-7.27
1303.66,-7.27
1304.16,-7.28
1304.66,-7.29
1305.16,-7.30
1305.66,-7.31
1306.16,-7.32
1306.66,-7.33
1307.16,-7.34
1307.66,-7.35
1308.16,-7.36
1308.66,-7.37
1309.16,-7.38
1309.66,-7.39
1310.16,-7.40
1310.66,-7.41
1311.16,-7.42
1311.66,-7.43
1312.16,-7.44
1312.66,-7.45
1313.16,-7.46
1313.66,-7.47
1314.16,-7.48
1314.66,-7.49
1315.16,-7.50
1315.66,-7.51
1316.16,-7.52
1316.66,-7.53
1317.16,-7.54
1317.66,-7.55
1318.16,-7.56
1318.66,-7.57
1319.16,-7.58
1319.66,-7.59
1320.17,-7.60
1320.67,-7.61
1321.17,-7.62
1321.67,-7.63
1322.17,-7.64
1322.67,-7.64
1323.17,-7.65
1323.67,-7.66
1324.17,-7.67
1324.67,-7.68
1325.17,-7.69
1325.67,-7.70
1326.17,-7.71
1326.67,-7.72
1327.17,-7.73
1327.67,-7.74
1328.17,-7.75
1328.67,-7.76
1329.17,-7.77
1329.67,-7.78
1330.17,-7.79
1330.67,-7.80
1331.17,-7.82
1331.67,-7.83
1332.17,-7.84
1332.67,-7.85
1333.17,-7.86
1333.67,-7.87
1334.17,-7.88
1334.67,-7.89
1335.17,-7.90
1335.67,-7.91
1336.17,-7.92
1336.67,-7.93
1337.17,-7.94
1337.67,-7.95
1338.17,-7.96
1338.67,-7.97
1339.17,-7.98
1339.67,-7.99
1340.17,-8.00
1340.67,-8.01
1341.17,-8.02
1341.67,-8.03
1342.17,-8.04
1342.67,-8.05
1343.17,-8.06
1343.67,-8.07
1344.17,-8.08
1344.67,-8.09
1345.17,-8.10
1345.67,-8.11
1346.17,-8.12
1346.67,-8.13
1347.17,-8.14
1347.67,-8.15
1348.17,-8.16
1348.67,-8.17
1349.17,-8.18
1349.67,-8.20
1350.17,-8.21
1350.67,-8.22
1351.17,-8.23
1351.67,-8.24
1352.17,-8.25
1352.67,-8.26
1353.17,-8.27
1353.67,-8.28
1354.17,-8.29
1354.67,-8.30
1355.17,-8.31
1355.67,-8.32
1356.17,-8.33
1356.67,-8.34
1357.17,-8.35
1357.67,-8.36
1358.17,-8.37
1358.67,-8.39
1359.17,-8.40
1359.67,-8.41
1360.17,-8.42
1360.67,-8.43
1361.17,-8.44
1361.67,-8.45
1362.17,-8.46
1362.67,-8.47
1363.17,-8.48
1363.67,-8.49
1364.17,-8.50
1364.67,-8.51
1365.17,-8.52
1365.67,-8.54
1366.17,-8.55
1366.67,-8.56
1367.17,-8.57
1367.67,-8.58
1368.17,-8.59
1368.67,-8.60
1369.17,-8.61
1369.67,-8.62
1370.17,-8.63
1370.67,-8.64
1371.17,-8.65
1371.67,-8.67
1372.17,-8.68
1372.67,-8.69
1373.17,-8.70
1373.67,-8.71
1374.17,-8.72
1374.67,-8.73
1375.17,-8.74
1375.67,-8.75
1376.17,-8.76
1376.67,-8.77
1377.17,-8.79
1377.67,-8.80
1378.17,-8.81
1378.67,-8.82
1379.17,-8.83
1379.67,-8.84
1380.17,-8.85
1380.67,-8.86
1381.17,-8.87
1381.67,-8.89
1382.17,-8.90
1382.67,-8.91
1383.17,-8.92
1383.67,-8.93
1384.17,-8.94
1384.67,-8.95
1385.17,-8.96
1385.67,-8.97
1386.17,-8.99
1386.67,-9.00
1387.17,-9.01
1387.67,-9.02
1388.17,-9.03
1388.67,-9.04
1389.17,-9.05
1389.67,-9.06
1390.17,-9.08
1390.67,-9.09
1391.17,-9.10
1391.67,-9.11
1392.17,-9.12
1392.67,-9.13
1393.17,-9.14
1393.67,-9.16
1394.17,-9.17
1394.67,-9.18
1395.17,-9.19
1395.67,-9.20
1396.17,-9.21
1396.67,-9.22
1397.17,-9.24
1397.67,-9.25
1398.17,-9.26
1398.67,-9.27
1399.17,-9.28
1399.67,-9.29
1400.18,-9.30
1400.68,-9.32
1401.18,-9.33
1401.68,-9.34
1402.18,-9.35
1402.68,-9.36
1403.18,-9.37
1403.68,-9.39
1404.18,-9.40
1404.68,-9.41
1405.18,-9.42
1405.68,-9.43
1406.18,-9.44
1406.68,-9.45
1407.18,-9.47
1407.68,-9.48
1408.18,-9.49
1408.68,-9.50
1409.18,-9.51
1409.68,-9.53
1410.18,-9.54
1410.68,-9.55
1411.18,-9.56
1411.68,-9.57
1412.18,-9.58
1412.68,-9.60
1413.18,-9.61
1413.68,-9.62
1414.18,-9.63
1414.68,-9.64
1415.18,-9.65
1415.68,-9.67
1416.18,-9.68
1416.68,-9.69
1417.18,-9.70
1417.68,-9.71
1418.18,-9.73
1418.68,-9.74
1419.18,-9.75
1419.68,-9.76
1420.18,-9.77
1420.68,-9.79
1421.18,-9.80
1421.68,-9.81
1422.18,-9.82
1422.68,-9.83
1423.18,-9.85
1423.68,-9.86
1424.18,-9.87
1424.68,-9.88
1425.18,-9.89
1425.68,-9.91
1426.18,-9.92
1426.68,-9.93
1427.18,-9.94
1427.68,-9.95
1428.18,-9.97
1428.68,-9.98
1429.18,-9.99
1429.68,-10.00
1430.18,-10.02
1430.68,-10.03
1431.18,-10.04
1431.68,-10.05
1432.18,-10.06
1432.68,-10.08
1433.18,-10.09
1433.68,-10.10
1434.18,-10.11
1434.68,-10.13
1435.18,-10.14
1435.68,-10.15
1436.18,-10.16
1436.68,-10.17
1437.18,-10.19
1437.68,-10.20
1438.18,-10.21
1438.68,-10.22
1439.18,-10.24
1439.68,-10.25
1440.18,-10.26
1440.68,-10.27
1441.18,-10.29
1441.68,-10.30
1442.18,-10.31
1442.68,-10.32
1443.18,-10.34
1443.68,-10.35
1444.18,-10.36
1444.68,-10.37
1445.18,-10.39
1445.68,-10.40
1446.18,-10.41
1446.68,-10.42
1447.18,-10.44
1447.68,-10.45
1448.18,-10.46
1448.68,-10.47
1449.18,-10.49
1449.68,-10.50
1450.18,-10.51
1450.68,-10.52
1451.18,-10.54
1451.68,-10.55
1452.18,-10.56
1452.68,-10.58
1453.18,-10.59
1453.68,-10.60
1454.18,-10.61
1454.68,-10.63
1455.18,-10.64
1455.68,-10.65
1456.18,-10.66
1456.68,-10.68
1457.18,-10.69
1457.68,-10.70
1458.18,-10.72
1458.68,-10.73
1459.18,-10.74
1459.68,-10.75
1460.18,-10.77
1460.68,-10.78
1461.18,-10.79
1461.68,-10.81
1462.18,-10.82
1462.68,-10.83
1463.18,-10.84
1463.68,-10.86
1464.18,-10.87
1464.68,-10.88
1465.18,-10.90
1465.68,-10.91
1466.18,-10.92
1466.68,-10.94
1467.18,-10.95
1467.68,-10.96
1468.18,-10.98
1468.68,-10.99
1469.18,-11.00
1469.68,-11.01
1470.18,-11.03
1470.68,-11.04
1471.18,-11.05
1471.68,-11.07
1472.18,-11.08
1472.68,-11.09
1473.18,-11.11
1473.68,-11.12
1474.18,-11.13
1474.68,-11.15
1475.18,-11.16
1475.68,-11.17
1476.18,-11.19
1476.68,-11.20
1477.18,-11.21
1477.68,-11.23
1478.18,-11.24
1478.68,-11.25
1479.18,-11.27
1479.68,-11.28
1480.19,-11.29
1480.69,-11.31
1481.19,-11.32
1481.69,-11.33
1482.19,-11.35
1482.69,-11.36
1483.19,-11.37
1483.69,-11.39
1484.19,-11.40
1484.69,-11.41
1485.19,-11.43
1485.69,-11.44
1486.19,-11.45
1486.69,-11.47
1487.19,-11.48
1487.69,-11.50
1488.19,-11.51
1488.69,-11.52
1489.19,-11.54
1489.69,-11.55
1490.19,-11.56
1490.69,-11.58
1491.19,-11.59
1491.69,-11.60
1492.19,-11.62
1492.69,-11.63
1493.19,-11.65
1493.69,-11.66
1494.19,-11.67
1494.69,-11.69
1495.19,-11.70
1495.69,-11.71
1496.19,-11.73
1496.69,-11.74
1497.19,-11.76
1497.69,-11.77
1498.19,-11.78
1498.69,-11.80
1499.19,-11.81
1499.69,-11.82
1500.19,-11.84
1500.69,-11.85
1501.19,-11.87
1501.69,-11.88
1502.19,-11.89
1502.69,-11.91
1503.19,-11.92
1503.69,-11.94
1504.19,-11.95
1504.69,-11.96
1505.19,-11.98
1505.69,-11.99
1506.19,-12.01
1506.69,-12.02
1507.19,-12.03
1507.69,-12.05
1508.19,-12.06
1508.69,-12.08
1509.19,-12.09
1509.69,-12.10
1510.19,-12.12
1510.69,-12.13
1511.19,-12.15
1511.69,-12.16
1512.19,-12.18
1512.69,-12.19
1513.19,-12.20
1513.69,-12.22
1514.19,-12.23
1514.69,-12.25
1515.19,-12.26
1515.69,-12.28
1516.19,-12.29
1516.69,-12.30
1517.19,-12.32
1517.69,-12.33
1518.19,-12.35
1518.69,-12.36
1519.19,-12.38
1519.69,-12.39
1520.19,-12.41
1520.69,-12.42
1521.19,-12.43
1521.69,-12.45
1522.19,-12.46
1522.69,-12.48
1523.19,-12.49
1523.69,-12.51
1524.19,-12.52
1524.69,-12.54
1525.19,-12.55
1525.69,-12.56
1526.19,-12.58
1526.69,-12.59
1527.19,-12.61
1527.69,-12.62
1528.19,-12.64
1528.69,-12.65
1529.19,-12.67
1529.69,-12.68
1530.19,-12.70
1530.69,-12.71
1531.19,-12.73
1531.69,-12.74
1532.19,-12.76
1532.69,-12.77
1533.19,-12.79
1533.69,-12.80
1534.19,-12.81
1534.69,-12.83
1535.19,-12.84
1535.69,-12.86
1536.19,-12.87
1536.69,-12.89
1537.19,-12.90
1537.69,-12.92
1538.19,-12.93
1538.69,-12.95
1539.19,-12.96
1539.69,-12.98
1540.19,-12.99
1540.69,-13.01
1541.19,-13.02
1541.69,-13.04
1542.19,-13.05
1542.69,-13.07
1543.19,-13.08
1543.69,-13.10
1544.19,-13.11
1544.69,-13.13
1545.19,-13.14
1545.69,-13.16
1546.19,-13.17
1546.69,-13.19
1547.19,-13.21
1547.69,-13.22
1548.19,-13.24
1548.69,-13.25
1549.19,-13.27
1549.69,-13.28
1550.19,-13.30
1550.69,-13.31
1551.19,-13.33
1551.69,-13.34
1552.19,-13.36
1552.69,-13.37
1553.19,-13.39
1553.69,-13.40
1554.19,-13.42
1554.69,-13.44
1555.19,-13.45
1555.69,-13.47
1556.19,-13.48
1556.69,-13.50
1557.19,-13.51
1557.69,-13.53
1558.19,-13.54
1558.69,-13.56
1559.19,-13.57
1559.69,-13.59
1560.20,-13.61
1560.70,-13.62
1561.20,-13.64
1561.70,-13.65
1562.20,-13.67
1562.70,-13.68
1563.20,-13.70
1563.70,-13.72
1564.20,-13.73
1564.70,-13.75
1565.20,-13.76
1565.70,-13.78
1566.20,-13.79
1566.70,-13.81
1567.20,-13.83
1567.70,-13.84
1568.20,-13.86
1568.70,-13.87
1569.20,-13.89
1569.70,-13.90
1570.20,-13.92
1570.70,-13.94
1571.20,-13.95
1571.70,-13.97
1572.20,-13.98
1572.70,-14.00
1573.20,-14.02
1573.70,-14.03
1574.20,-14.05
1574.70,-14.06
1575.20,-14.08
1575.70,-14.10
1576.20,-14.11
1576.70,-14.13
1577.20,-14.15
1577.70,-14.16
1578.20,-14.18
1578.70,-14.19
1579.20,-14.21
1579.70,-14.23
1580.20,-14.24
1580.70,-14.26
1581.20,-14.27
1581.70,-14.29
1582.20,-14.31
1582.70,-14.32
1583.20,-14.34
1583.70,-14.36
1584.20,-14.37
1584.70,-14.39
1585.20,-14.41
1585.70,-14.42
1586.20,-14.44
1586.70,-14.45
1587.20,-14.47
1587.70,-14.49
1588.20,-14.50
1588.70,-14.52
1589.20,-14.54
1589.70,-14.55
1590.20,-14.57
1590.70,-14.59
1591.20,-14.60
1591.70,-14.62
1592.20,-14.64
1592.70,-14.65
1593.20,-14.67
1593.70,-14.69
1594.20,-14.70
1594.70,-14.72
1595.20,-14.74
1595.70,-14.75
1596.20,-14.77
1596.70,-14.79
1597.20,-14.80
1597.70,-14.82
1598.20,-14.84
1598.70,-14.85
1599.20,-14.87
1599.70,-14.89
1600.20,-14.90
1600.70,-14.92
1601.20,-14.94
1601.70,-14.96
1602.20,-14.97
1602.70,-14.99
1603.20,-15.01
1603.70,-15.02
1604.20,-15.04
1604.70,-15.06
1605.20,-15.07
1605.70,-15.09
1606.20,-15.11
1606.70,-15.13
1607.20,-15.14
1607.70,-15.16
1608.20,-15.18
1608.70,-15.19
1609.20,-15.21
1609.70,-15.23
1610.20,-15.25
1610.70,-15.26
1611.20,-15.28
1611.70,-15.30
1612.20,-15.32
1612.70,-15.33
1613.20,-15.35
1613.70,-15.37
1614.20,-15.39
1614.70,-15.40
1615.20,-15.42
1615.70,-15.44
1616.20,-15.45
1616.70,-15.47
1617.20,-15.49
1617.70,-15.51
1618.20,-15.53
1618.70,-15.54
1619.20,-15.56
1619.70,-15.58
1620.20,-15.60
1620.70,-15.61
1621.20,-15.63
1621.70,-15.65
1622.20,-15.67
1622.70,-15.68
1623.20,-15.70
1623.70,-15.72
1624.20,-15.74
1624.70,-15.75
1625.20,-15.77
1625.70,-15.79
1626.20,-15.81
1626.70,-15.83
1627.20,-15.84
1627.70,-15.86
1628.20,-15.88
1628.70,-15.90
1629.20,-15.92
1629.70,-15.93
1630.20,-15.95
1630.70,-15.97
1631.20,-15.99
1631.70,-16.01
1632.20,-16.02
1632.70,-16.04
1633.20,-16.06
1633.70,-16.08
1634.20,-16.10
1634.70,-16.11
1635.20,-16.13
1635.70,-16.15
1636.20,-16.17
1636.70,-16.19
1637.20,-16.21
1637.70,-16.22
1638.20,-16.24
1638.70,-16.26
1639.20,-16.28
1639.70,-16.30
1640.21,-16.32
1640.71,-16.33
1641.21,-16.35
1641.71,-16.37
1642.21,-16.39
1642.71,-16.41
1643.21,-16.43
1643.71,-16.45
1644.21,-16.46
1644.71,-16.48
1645.21,-16.50
1645.71,-16.52
1646.21,-16.54
1646.71,-16.56
1647.21,-16.58
1647.71,-16.59
1648.21,-16.61
1648.71,-16.63
1649.21,-16.65
1649.71,-16.67
1650.21,-16.69
1650.71,-16.71
1651.21,-16.73
1651.71,-16.75
1652.21,-16.76
1652.71,-16.78
1653.21,-16.80
1653.71,-16.82
1654.21,-16.84
1654.71,-16.86
1655.21,-16.88
1655.71,-16.90
1656.21,-16.92
1656.71,-16.94
1657.21,-16.95
1657.71,-16.97
1658.21,-16.99
1658.71,-17.01
1659.21,-17.03
1659.71,-17.05
1660.21,-17.07
1660.71,-17.09
1661.21,-17.11
1661.71,-17.13
1662.21,-17.15
1662.71,-17.17
1663.21,-17.19
1663.71,-17.21
1664.21,-17.22
1664.71,-17.24
1665.21,-17.26
1665.71,-17.28
1666.21,-17.30
1666.71,-17.32
1667.21,-17.34
1667.71,-17.36
1668.21,-17.38
1668.71,-17.40
1669.21,-17.42
1669.71,-17.44
1670.21,-17.46
1670.71,-17.48
1671.21,-17.50
1671.71,-17.52
1672.21,-17.54
1672.71,-17.56
1673.21,-17.58
1673.71,-17.60
1674.21,-17.62
1674.71,-17.64
1675.21,-17.66
1675.71,-17.68
1676.21,-17.70
1676.71,-17.72
1677.21,-17.74
1677.71,-17.76
1678.21,-17.78
1678.71,-17.80
1679.21,-17.82
1679.71,-17.84
1680.21,-17.86
1680.71,-17.88
1681.21,-17.90
1681.71,-17.92
1682.21,-17.94
1682.71,-17.96
1683.21,-17.98
1683.71,-18.00
1684.21,-18.02
1684.71,-18.04
1685.21,-18.06
1685.71,-18.08
1686.21,-18.10
1686.71,-18.12
1687.21,-18.14
1687.71,-18.16
1688.21,-18.19
1688.71,-18.21
1689.21,-18.23
1689.71,-18.25
1690.21,-18.27
1690.71,-18.29
1691.21,-18.31
1691.71,-18.33
1692.21,-18.35
1692.71,-18.37
1693.21,-18.39
1693.71,-18.41
1694.21,-18.43
1694.71,-18.46
1695.21,-18.48
1695.71,-18.50
1696.21,-18.52
1696.71,-18.54
1697.21,-18.56
1697.71,-18.58
1698.21,-18.60
1698.71,-18.62
1699.21,-18.65
1699.71,-18.67
1700.21,-18.69
1700.71,-18.71
1701.21,-18.73
1701.71,-18.75
1702.21,-18.77
1702.71,-18.79
1703.21,-18.82
1703.71,-18.84
1704.21,-18.86
1704.71,-18.88
1705.21,-18.90
1705.71,-18.92
1706.21,-18.94
1706.71,-18.97
1707.21,-18.99
1707.71,-19.01
1708.21,-19.03
1708.71,-19.05
1709.21,-19.07
1709.71,-19.10
1710.21,-19.12
1710.71,-19.14
1711.21,-19.16
1711.71,-19.18
1712.21,-19.21
1712.71,-19.23
1713.21,-19.25
1713.71,-19.27
1714.21,-19.29
1714.71,-19.32
1715.21,-19.34
1715.71,-19.36
1716.21,-19.38
1716.71,-19.40
1717.21,-19.43
1717.71,-19.45
1718.21,-19.47
1718.71,-19.49
1719.21,-19.52
1719.71,-19.54
1720.22,-19.56
1720.72,-19.58
1721.22,-19.61
1721.72,-19.63
1722.22,-19.65
1722.72,-19.67
1723.22,-19.70
1723.72,-19.72
1724.22,-19.74
1724.72,-19.76
1725.22,-19.79
1725.72,-19.81
1726.22,-19.83
1726.72,-19.85
1727.22,-19.88
1727.72,-19.90
1728.22,-19.92
1728.72,-19.95
1729.22,-19.97
1729.72,-19.99
1730.22,-20.02
1730.72,-20.04
1731.22,-20.06
1731.72,-20.08
1732.22,-20.11
1732.72,-20.13
1733.22,-20.15
1733.72,-20.18
1734.22,-20.20
1734.72,-20.22
1735.22,-20.25
1735.72,-20.27
1736.22,-20.29
1736.72,-20.32
1737.22,-20.34
1737.72,-20.36
1738.22,-20.39
1738.72,-20.41
1739.22,-20.44
1739.72,-20.46
1740.22,-20.48
1740.72,-20.51
1741.22,-20.53
1741.72,-20.55
1742.22,-20.58
1742.72,-20.60
1743.22,-20.63
1743.72,-20.65
1744.22,-20.67
1744.72,-20.70
1745.22,-20.72
1745.72,-20.75
1746.22,-20.77
1746.72,-20.79
1747.22,-20.82
1747.72,-20.84
1748.22,-20.87
1748.72,-20.89
1749.22,-20.92
1749.72,-20.94
1750.22,-20.96
1750.72,-20.99
1751.22,-21.01
1751.72,-21.04
1752.22,-21.06
1752.72,-21.09
1753.22,-21.11
1753.72,-21.14
1754.22,-21.16
1754.72,-21.19
1755.22,-21.21
1755.72,-21.24
1756.22,-21.26
1756.72,-21.29
1757.22,-21.31
1757.72,-21.34
1758.22,-21.36
1758.72,-21.39
1759.22,-21.41
1759.72,-21.44
1760.22,-21.46
1760.72,-21.49
1761.22,-21.51
1761.72,-21.54
1762.22,-21.56
1762.72,-21.59
1763.22,-21.61
1763.72,-21.64
1764.22,-21.66
1764.72,-21.69
1765.22,-21.72
1765.72,-21.74
1766.22,-21.77
1766.72,-21.79
1767.22,-21.82
1767.72,-21.85
1768.22,-21.87
1768.72,-21.90
1769.22,-21.92
1769.72,-21.95
1770.22,-21.97
1770.72,-22.00
1771.22,-22.03
1771.72,-22.05
1772.22,-22.08
1772.72,-22.11
1773.22,-22.13
1773.72,-22.16
1774.22,-22.19
1774.72,-22.21
1775.22,-22.24
1775.72,-22.26
1776.22,-22.29
1776.72,-22.32
1777.22,-22.34
1777.72,-22.37
1778.22,-22.40
1778.72,-22.43
1779.22,-22.45
1779.72,-22.48
1780.22,-22.51
1780.72,-22.53
1781.22,-22.56
1781.72,-22.59
1782.22,-22.61
1782.72,-22.64
1783.22,-22.67
1783.72,-22.70
1784.22,-22.72
1784.72,-22.75
1785.22,-22.78
1785.72,-22.81
1786.22,-22.83
1786.72,-22.86
1787.22,-22.89
1787.72,-22.92
1788.22,-22.94
1788.72,-22.97
1789.22,-23.00
1789.72,-23.03
1790.22,-23.06
1790.72,-23.08
1791.22,-23.11
1791.72,-23.14
1792.22,-23.17
1792.72,-23.20
1793.22,-23.22
1793.72,-23.25
1794.22,-23.28
1794.72,-23.31
1795.22,-23.34
1795.72,-23.37
1796.22,-23.40
1796.72,-23.42
1797.22,-23.45
1797.72,-23.48
1798.22,-23.51
1798.72,-23.54
1799.22,-23.57
1799.72,-23.60
1800.23,-23.63
1800.73,-23.66
1801.23,-23.69
1801.73,-23.71
1802.23,-23.74
1802.73,-23.77
1803.23,-23.80
1803.73,-23.83
1804.23,-23.86
1804.73,-23.89
1805.23,-23.92
1805.73,-23.95
1806.23,-23.98
1806.73,-24.01
1807.23,-24.04
1807.73,-24.07
1808.23,-24.10
1808.73,-24.13
1809.23,-24.16
1809.73,-24.19
1810.23,-24.22
1810.73,-24.25
1811.23,-24.28
1811.73,-24.31
1812.23,-24.34
1812.73,-24.37
1813.23,-24.40
1813.73,-24.43
1814.23,-24.46
1814.73,-24.50
1815.23,-24.53
1815.73,-24.56
1816.23,-24.59
1816.73,-24.62
1817.23,-24.65
1817.73,-24.68
1818.23,-24.71
1818.73,-24.74
1819.23,-24.78
1819.73,-24.81
1820.23,-24.84
1820.73,-24.87
1821.23,-24.90
1821.73,-24.93
1822.23,-24.97
1822.73,-25.00
1823.23,-25.03
1823.73,-25.06
1824.23,-25.09
1824.73,-25.13
1825.23,-25.16
1825.73,-25.19
1826.23,-25.22
1826.73,-25.26
1827.23,-25.29
1827.73,-25.32
1828.23,-25.35
1828.73,-25.39
1829.23,-25.42
1829.73,-25.45
1830.23,-25.49
1830.73,-25.52
1831.23,-25.55
1831.73,-25.59
1832.23,-25.62
1832.73,-25.65
1833.23,-25.69
1833.73,-25.72
1834.23,-25.75
1834.73,-25.79
1835.23,-25.82
1835.73,-25.86
1836.23,-25.89
1836.73,-25.92
1837.23,-25.96
1837.73,-25.99
1838.23,-26.03
1838.73,-26.06
1839.23,-26.10
1839.73,-26.13
1840.23,-26.16
1840.73,-26.20
1841.23,-26.23
1841.73,-26.27
1842.23,-26.30
1842.73,-26.34
1843.23,-26.37
1843.73,-26.41
1844.23,-26.45
1844.73,-26.48
1845.23,-26.52
1845.73,-26.55
1846.23,-26.59
1846.73,-26.62
1847.23,-26.66
1847.73,-26.70
1848.23,-26.73
1848.73,-26.77
1849.23,-26.80
1849.73,-26.84
1850.23,-26.88
1850.73,-26.91
1851.23,-26.95
1851.73,-26.99
1852.23,-27.02
1852.73,-27.06
1853.23,-27.10
1853.73,-27.14
1854.23,-27.17
1854.73,-27.21
1855.23,-27.25
1855.73,-27.29
1856.23,-27.32
1856.73,-27.36
1857.23,-27.40
1857.73,-27.44
1858.23,-27.48
1858.73,-27.52
1859.23,-27.55
1859.73,-27.59
1860.23,-27.63
1860.73,-27.67
1861.23,-27.71
1861.73,-27.75
1862.23,-27.79
1862.73,-27.83
1863.23,-27.87
1863.73,-27.90
1864.23,-27.94
1864.73,-27.98
1865.23,-28.02
1865.73,-28.06
1866.23,-28.10
1866.73,-28.14
1867.23,-28.18
1867.73,-28.22
1868.23,-28.27
1868.73,-28.31
1869.23,-28.35
1869.73,-28.39
1870.23,-28.43
1870.73,-28.47
1871.23,-28.51
1871.73,-28.55
1872.23,-28.60
1872.73,-28.64
1873.23,-28.68
1873.73,-28.72
1874.23,-28.76
1874.73,-28.81
1875.23,-28.85
1875.73,-28.89
1876.23,-28.93
1876.73,-28.98
1877.23,-29.02
1877.73,-29.06
1878.23,-29.11
1878.73,-29.15
1879.23,-29.19
1879.73,-29.24
1880.24,-29.28
1880.74,-29.32
1881.24,-29.37
1881.74,-29.41
1882.24,-29.46
1882.74,-29.50
1883.24,-29.55
1883.74,-29.59
1884.24,-29.64
1884.74,-29.68
1885.24,-29.73
1885.74,-29.77
1886.24,-29.82
1886.74,-29.87
1887.24,-29.91
1887.74,-29.96
1888.24,-30.01
1888.74,-30.05
1889.24,-30.10
1889.74,-30.15
1890.24,-30.19
1890.74,-30.24
1891.24,-30.29
1891.74,-30.34
1892.24,-30.38
1892.74,-30.43
1893.24,-30.48
1893.74,-30.53
1894.24,-30.58
1894.74,-30.63
1895.24,-30.68
1895.74,-30.73
1896.24,-30.78
1896.74,-30.83
1897.24,-30.88
1897.74,-30.93
1898.24,-30.98
1898.74,-31.03
1899.24,-31.08
1899.74,-31.13
1900.24,-31.18
1900.74,-31.23
1901.24,-31.28
1901.74,-31.33
1902.24,-31.39
1902.74,-31.44
1903.24,-31.49
1903.74,-31.54
1904.24,-31.60
1904.74,-31.65
1905.24,-31.70
1905.74,-31.76
1906.24,-31.81
1906.74,-31.87
1907.24,-31.92
1907.74,-31.98
1908.24,-32.03
1908.74,-32.09
1909.24,-32.14
1909.74,-32.20
1910.24,-32.25
1910.74,-32.31
1911.24,-32.37
1911.74,-32.42
1912.24,-32.48
1912.74,-32.54
1913.24,-32.60
1913.74,-32.66
1914.24,-32.71
1914.74,-32.77
1915.24,-32.83
1915.74,-32.89
1916.24,-32.95
1916.74,-33.01
1917.24,-33.07
1917.74,-33.13
1918.24,-33.19
1918.74,-33.25
1919.24,-33.31
1919.74,-33.38
1920.24,-33.44
1920.74,-33.50
1921.24,-33.56
1921.74,-33.63
1922.24,-33.69
1922.74,-33.75
1923.24,-33.82
1923.74,-33.88
1924.24,-33.95
1924.74,-34.01
1925.24,-34.08
1925.74,-34.15
1926.24,-34.21
1926.74,-34.28
1927.24,-34.35
1927.74,-34.42
1928.24,-34.48
1928.74,-34.55
1929.24,-34.62
1929.74,-34.69
1930.24,-34.76
1930.74,-34.83
1931.24,-34.90
1931.74,-34.97
1932.24,-35.05
1932.74,-35.12
1933.24,-35.19
1933.74,-35.26
1934.24,-35.34
1934.74,-35.41
1935.24,-35.49
1935.74,-35.56
1936.24,-35.64
1936.74,-35.71
1937.24,-35.79
1937.74,-35.87
1938.24,-35.95
1938.74,-36.03
1939.24,-36.11
1939.74,-36.18
1940.24,-36.27
1940.74,-36.35
1941.24,-36.43
1941.74,-36.51
1942.24,-36.59
1942.74,-36.68
1943.24,-36.76
1943.74,-36.85
1944.24,-36.93
1944.74,-37.02
1945.24,-37.10
1945.74,-37.19
1946.24,-37.28
1946.74,-37.37
1947.24,-37.46
1947.74,-37.55
1948.24,-37.64
1948.74,-37.73
1949.24,-37.83
1949.74,-37.92
1950.24,-38.02
1950.74,-38.11
1951.24,-38.21
1951.74,-38.31
1952.24,-38.41
1952.74,-38.50
1953.24,-38.61
1953.74,-38.71
1954.24,-38.81
1954.74,-38.91
1955.24,-39.02
1955.74,-39.12
1956.24,-39.23
1956.74,-39.34
1957.24,-39.45
1957.74,-39.56
1958.24,-39.67
1958.74,-39.78
1959.24,-39.90
1959.74,-40.01
1960.25,-40.13
1960.75,-40.25
1961.25,-40.36
1961.75,-40.49
1962.25,-40.61
1962.75,-40.73
1963.25,-40.86
1963.75,-40.98
1964.25,-41.11
1964.75,-41.24
1965.25,-41.38
1965.75,-41.51
1966.25,-41.65
1966.75,-41.78
1967.25,-41.92
1967.75,-42.06
1968.25,-42.21
1968.75,-42.35
1969.25,-42.50
1969.75,-42.65
1970.25,-42.81
1970.75,-42.96
1971.25,-43.12
1971.75,-43.28
1972.25,-43.44
1972.75,-43.61
1973.25,-43.78
1973.75,-43.95
1974.25,-44.13
1974.75,-44.30
1975.25,-44.49
1975.75,-44.67
1976.25,-44.86
1976.75,-45.05
1977.25,-45.25
1977.75,-45.45
1978.25,-45.66
1978.75,-45.87
1979.25,-46.08
1979.75,-46.30
1980.25,-46.53
1980.75,-46.76
1981.25,-47.00
1981.75,-47.24
1982.25,-47.49
1982.75,-47.74
1983.25,-48.01
1983.75,-48.28
1984.25,-48.56
1984.75,-48.85
1985.25,-49.14
1985.75,-49.45
1986.25,-49.77
1986.75,-50.10
1987.25,-50.44
1987.75,-50.80
1988.25,-51.17
1988.75,-51.56
1989.25,-51.96
1989.75,-52.38
1990.25,-52.82
1990.75,-53.29
1991.25,-53.78
1991.75,-54.30
1992.25,-54.85
1992.75,-55.44
1993.25,-56.07
1993.75,-56.74
1994.25,-57.47
1994.75,-58.27
1995.25,-59.15
1995.75,-60.13
1996.25,-61.22
1996.75,-62.47
1997.25,-63.93
1997.75,-65.68
1998.25,-67.87
1998.75,-70.80
1999.25,-75.25
1999.75,-84.80
2000.25,-84.81
2000.75,-75.27
2001.25,-70.85
2001.75,-67.93
2002.25,-65.76
2002.75,-64.02
2003.25,-62.58
2003.75,-61.34
2004.25,-60.27
2004.75,-59.31
2005.25,-58.45
2005.75,-57.66
2006.25,-56.95
2006.75,-56.29
2007.25,-55.68
2007.75,-55.10
2008.25,-54.57
2008.75,-54.07
2009.25,-53.59
2009.75,-53.14
2010.25,-52.72
2010.75,-52.31
2011.25,-51.93
2011.75,-51.56
2012.25,-51.20
2012.75,-50.86
2013.25,-50.54
2013.75,-50.22
2014.25,-49.92
2014.75,-49.63
2015.25,-49.35
2015.75,-49.08
2016.25,-48.81
2016.75,-48.56
2017.25,-48.31
2017.75,-48.07
2018.25,-47.84
2018.75,-47.61
2019.25,-47.39
2019.75,-47.18
2020.25,-46.97
2020.75,-46.77
2021.25,-46.57
2021.75,-46.37
2022.25,-46.18
2022.75,-46.00
2023.25,-45.82
2023.75,-45.64
2024.25,-45.47
2024.75,-45.30
2025.25,-45.14
2025.75,-44.97
2026.25,-44.82
2026.75,-44.66
2027.25,-44.51
2027.75,-44.36
2028.25,-44.21
2028.75,-44.07
2029.25,-43.93
2029.75,-43.79
2030.25,-43.65
2030.75,-43.52
2031.25,-43.38
2031.75,-43.25
2032.25,-43.13
2032.75,-43.00
2033.25,-42.88
2033.75,-42.76
2034.25,-42.64
2034.75,-42.52
2035.25,-42.40
2035.75,-42.29
2036.25,-42.18
2036.75,-42.07
2037.25,-41.96
2037.75,-41.85
2038.25,-41.75
2038.75,-41.64
2039.25,-41.54
2039.75,-41.44
2040.26,-41.34
2040.76,-41.24
2041.26,-41.14
2041.76,-41.04
2042.26,-40.95
2042.76,-40.85
2043.26,-40.76
2043.76,-40.67
2044.26,-40.58
2044.76,-40.49
2045.26,-40.40
2045.76,-40.32
2046.26,-40.23
2046.76,-40.14
2047.26,-40.06
2047.76,-39.98
2048.26,-39.90
2048.76,-39.81
2049.26,-39.73
2049.76,-39.66
2050.26,-39.58
2050.76,-39.50
2051.26,-39.42
2051.76,-39.35
2052.26,-39.27
2052.76,-39.20
2053.26,-39.12
2053.76,-39.05
2054.26,-38.98
2054.76,-38.91
2055.26,-38.84
2055.76,-38.77
2056.26,-38.70
2056.76,-38.63
2057.26,-38.56
2057.76,-38.49
2058.26,-38.43
2058.76,-38.36
2059.26,-38.30
2059.76,-38.23
2060.26,-38.17
2060.76,-38.11
2061.26,-38.04
2061.76,-37.98
2062.26,-37.92
2062.76,-37.86
2063.26,-37.80
2063.76,-37.74
2064.26,-37.68
2064.76,-37.62
2065.26,-37.56
2065.76,-37.50
2066.26,-37.45
2066.76,-37.39
2067.26,-37.33
2067.76,-37.28
2068.26,-37.22
2068.76,-37.17
2069.26,-37.11
2069.76,-37.06
2070.26,-37.00
2070.76,-36.95
2071.26,-36.90
2071.76,-36.85
2072.26,-36.79
2072.76,-36.74
2073.26,-36.69
2073.76,-36.64
2074.26,-36.59
2074.76,-36.54
2075.26,-36.49
2075.76,-36.44
2076.26,-36.39
2076.76,-36.35
2077.26,-36.30
2077.76,-36.25
2078.26,-36.20
2078.76,-36.16
2079.26,-36.11
2079.76,-36.06
2080.26,-36.02
2080.76,-35.97
2081.26,-35.93
2081.76,-35.88
2082.26,-35.84
2082.76,-35.79
2083.26,-35.75
2083.76,-35.71
2084.26,-35.66
2084.76,-35.62
2085.26,-35.58
2085.76,-35.54
2086.26,-35.49
2086.76,-35.45
2087.26,-35.41
2087.76,-35.37
2088.26,-35.33
2088.76,-35.29
2089.26,-35.25
2089.76,-35.21
2090.26,-35.17
2090.76,-35.13
2091.26,-35.09
2091.76,-35.05
2092.26,-35.01
2092.76,-34.97
2093.26,-34.94
2093.76,-34.90
2094.26,-34.86
2094.76,-34.82
2095.26,-34.79
2095.76,-34.75
2096.26,-34.71
2096.76,-34.68
2097.26,-34.64
2097.76,-34.60
2098.26,-34.57
2098.76,-34.53
2099.26,-34.50
2099.76,-34.46
2100.26,-34.43
2100.76,-34.39
2101.26,-34.36
2101.76,-34.32
2102.26,-34.29
2102.76,-34.26
2103.26,-34.22
2103.76,-34.19
2104.26,-34.16
2104.76,-34.12
2105.26,-34.09
2105.76,-34.06
2106.26,-34.02
2106.76,-33.99
2107.26,-33.96
2107.76,-33.93
2108.26,-33.90
2108.76,-33.87
2109.26,-33.83
2109.76,-33.80
2110.26,-33.77
2110.76,-33.74
2111.26,-33.71
2111.76,-33.68
2112.26,-33.65
2112.76,-33.62
2113.26,-33.59
2113.76,-33.56
2114.26,-33.53
2114.76,-33.50
2115.26,-33.47
2115.76,-33.44
2116.26,-33.41
2116.76,-33.39
2117.26,-33.36
2117.76,-33.33
2118.26,-33.30
2118.76,-33.27
2119.26,-33.25
2119.76,-33.22
2120.27,-33.19
2120.77,-33.16
2121.27,-33.14
2121.77,-33.11
2122.27,-33.08
2122.77,-33.05
2123.27,-33.03
2123.77,-33.00
2124.27,-32.97
2124.77,-32.95
2125.27,-32.92
2125.77,-32.90
2126.27,-32.87
2126.77,-32.85
2127.27,-32.82
2127.77,-32.79
2128.27,-32.77
2128.77,-32.74
2129.27,-32.72
2129.77,-32.69
2130.27,-32.67
2130.77,-32.64
2131.27,-32.62
2131.77,-32.60
2132.27,-32.57
2132.77,-32.55
2133.27,-32.52
2133.77,-32.50
2134.27,-32.48
2134.77,-32.45
2135.27,-32.43
2135.77,-32.40
2136.27,-32.38
2136.77,-32.36
2137.27,-32.34
2137.77,-32.31
2138.27,-32.29
2138.77,-32.27
2139.27,-32.24
2139.77,-32.22
2140.27,-32.20
2140.77,-32.18
2141.27,-32.16
2141.77,-32.13
2142.27,-32.11
2142.77,-32.09
2143.27,-32.07
2143.77,-32.05
2144.27,-32.02
2144.77,-32.00
2145.27,-31.98
2145.77,-31.96
2146.27,-31.94
2146.77,-31.92
2147.27,-31.90
2147.77,-31.88
2148.27,-31.86
2148.77,-31.84
2149.27,-31.82
2149.77,-31.80
2150.27,-31.78
2150.77,-31.76
2151.27,-31.74
2151.77,-31.72
2152.27,-31.70
2152.77,-31.68
2153.27,-31.66
2153.77,-31.64
2154.27,-31.62
2154.77,-31.60
2155.27,-31.58
2155.77,-31.56
2156.27,-31.54
2156.77,-31.52
2157.27,-31.50
2157.77,-31.48
2158.27,-31.46
2158.77,-31.45
2159.27,-31.43
2159.77,-31.41
2160.27,-31.39
2160.77,-31.37
2161.27,-31.35
2161.77,-31.34
2162.27,-31.32
2162.77,-31.30
2163.27,-31.28
2163.77,-31.26
2164.27,-31.25
2164.77,-31.23
2165.27,-31.21
2165.77,-31.19
2166.27,-31.18
2166.77,-31.16
2167.27,-31.14
2167.77,-31.12
2168.27,-31.11
2168.77,-31.09
2169.27,-31.07
2169.77,-31.06
2170.27,-31.04
2170.77,-31.02
2171.27,-31.01
2171.77,-30.99
2172.27,-30.97
2172.77,-30.96
2173.27,-30.94
2173.77,-30.92
2174.27,-30.91
2174.77,-30.89
2175.27,-30.88
2175.77,-30.86
2176.27,-30.84
2176.77,-30.83
2177.27,-30.81
2177.77,-30.80
2178.27,-30.78
2178.77,-30.77
2179.27,-30.75
2179.77,-30.73
2180.27,-30.72
2180.77,-30.70
2181.27,-30.69
2181.77,-30.67
2182.27,-30.66
2182.77,-30.64
2183.27,-30.63
2183.77,-30.61
2184.27,-30.60
2184.77,-30.58
2185.27,-30.57
2185.77,-30.55
2186.27,-30.54
2186.77,-30.53
2187.27,-30.51
2187.77,-30.50
2188.27,-30.48
2188.77,-30.47
2189.27,-30.45
2189.77,-30.44
2190.27,-30.43
2190.77,-30.41
2191.27,-30.40
2191.77,-30.38
2192.27,-30.37
2192.77,-30.36
2193.27,-30.34
2193.77,-30.33
2194.27,-30.32
2194.77,-30.30
2195.27,-30.29
2195.77,-30.28
2196.27,-30.26
2196.77,-30.25
2197.27,-30.24
2197.77,-30.22
2198.27,-30.21
2198.77,-30.20
2199.27,-30.18
2199.77,-30.17
2200.28,-30.16
2200.78,-30.15
2201.28,-30.13
2201.78,-30.12
2202.28,-30.11
2202.78,-30.09
2203.28,-30.08
2203.78,-30.07
2204.28,-30.06
2204.78,-30.04
2205.28,-30.03
2205.78,-30.02
2206.28,-30.01
2206.78,-30.00
2207.28,-29.98
2207.78,-29.97
2208.28,-29.96
2208.78,-29.95
2209.28,-29.94
2209.78,-29.92
2210.28,-29.91
2210.78,-29.90
2211.28,-29.89
2211.78,-29.88
2212.28,-29.87
2212.78,-29.85
2213.28,-29.84
2213.78,-29.83
2214.28,-29.82
2214.78,-29.81
2215.28,-29.80
2215.78,-29.79
2216.28,-29.77
2216.78,-29.76
2217.28,-29.75
2217.78,-29.74
2218.28,-29.73
2218.78,-29.72
2219.28,-29.71
2219.78,-29.70
2220.28,-29.69
2220.78,-29.68
2221.28,-29.66
2221.78,-29.65
2222.28,-29.64
2222.78,-29.63
2223.28,-29.62
2223.78,-29.61
2224.28,-29.60
2224.78,-29.59
2225.28,-29.58
2225.78,-29.57
2226.28,-29.56
2226.78,-29.55
2227.28,-29.54
2227.78,-29.53
2228.28,-29.52
2228.78,-29.51
2229.28,-29.50
2229.78,-29.49
2230.28,-29.48
2230.78,-29.47
2231.28,-29.46
2231.78,-29.45
2232.28,-29.44
2232.78,-29.43
2233.28,-29.42
2233.78,-29.41
2234.28,-29.40
2234.78,-29.39
2235.28,-29.38
2235.78,-29.37
2236.28,-29.36
2236.78,-29.35
2237.28,-29.34
2237.78,-29.33
2238.28,-29.32
2238.78,-29.32
2239.28,-29.31
2239.78,-29.30
2240.28,-29.29
2240.78,-29.28
2241.28,-29.27
2241.78,-29.26
2242.28,-29.25
2242.78,-29.24
2243.28,-29.23
2243.78,-29.23
2244.28,-29.22
2244.78,-29.21
2245.28,-29.20
2245.78,-29.19
2246.28,-29.18
2246.78,-29.17
2247.28,-29.16
2247.78,-29.16
2248.28,-29.15
2248.78,-29.14
2249.28,-29.13
2249.78,-29.12
2250.28,-29.11
2250.78,-29.10
2251.28,-29.10
2251.78,-29.09
2252.28,-29.08
2252.78,-29.07
2253.28,-29.06
2253.78,-29.06
2254.28,-29.05
2254.78,-29.04
2255.28,-29.03
2255.78,-29.02
2256.28,-29.02
2256.78,-29.01
2257.28,-29.00
2257.78,-28.99
2258.28,-28.98
2258.78,-28.98
2259.28,-28.97
2259.78,-28.96
2260.28,-28.95
2260.78,-28.94
2261.28,-28.94
2261.78,-28.93
2262.28,-28.92
2262.78,-28.91
2263.28,-28.91
2263.78,-28.90
2264.28,-28.89
2264.78,-28.88
2265.28,-28.88
2265.78,-28.87
2266.28,-28.86
2266.78,-28.86
2267.28,-28.85
2267.78,-28.84
2268.28,-28.83
2268.78,-28.83
2269.28,-28.82
2269.78,-28.81
2270.28,-28.81
2270.78,-28.80
2271.28,-28.79
2271.78,-28.78
2272.28,-28.78
2272.78,-28.77
2273.28,-28.76
2273.78,-28.76
2274.28,-28.75
2274.78,-28.74
2275.28,-28.74
2275.78,-28.73
2276.28,-28.72
2276.78,-28.72
2277.28,-28.71
2277.78,-28.70
2278.28,-28.70
2278.78,-28.69
2279.28,-28.68
2279.78,-28.68
2280.29,-28.67
2280.79,-28.66
2281.29,-28.66
2281.79,-28.65
2282.29,-28.64
2282.79,-28.64
2283.29,-28.63
2283.79,-28.63
2284.29,-28.62
2284.79,-28.61
2285.29,-28.61
2285.79,-28.60
2286.29,-28.60
2286.79,-28.59
2287.29,-28.58
2287.79,-28.58
2288.29,-28.57
2288.79,-28.57
2289.29,-28.56
2289.79,-28.55
2290.29,-28.55
2290.79,-28.54
2291.29,-28.54
2291.79,-28.53
2292.29,-28.52
2292.79,-28.52
2293.29,-28.51
2293.79,-28.51
2294.29,-28.50
2294.79,-28.50
2295.29,-28.49
2295.79,-28.48
2296.29,-28.48
2296.79,-28.47
2297.29,-28.47
2297.79,-28.46
2298.29,-28.46
2298.79,-28.45
2299.29,-28.45
2299.79,-28.44
2300.29,-28.43
2300.79,-28.43
2301.29,-28.42
2301.79,-28.42
2302.29,-28.41
2302.79,-28.41
2303.29,-28.40
2303.79,-28.40
2304.29,-28.39
2304.79,-28.39
2305.29,-28.38
2305.79,-28.38
2306.29,-28.37
2306.79,-28.37
2307.29,-28.36
2307.79,-28.36
2308.29,-28.35
2308.79,-28.35
2309.29,-28.34
2309.79,-28.34
2310.29,-28.33
2310.79,-28.33
2311.29,-28.32
2311.79,-28.32
2312.29,-28.31
2312.79,-28.31
2313.29,-28.30
2313.79,-28.30
2314.29,-28.29
2314.79,-28.29
2315.29,-28.29
2315.79,-28.28
2316.29,-28.28
2316.79,-28.27
2317.29,-28.27
2317.79,-28.26
2318.29,-28.26
2318.79,-28.25
2319.29,-28.25
2319.79,-28.24
2320.29,-28.24
2320.79,-28.24
2321.29,-28.23
2321.79,-28.23
2322.29,-28.22
2322.79,-28.22
2323.29,-28.21
2323.79,-28.21
2324.29,-28.21
2324.79,-28.20
2325.29,-28.20
2325.79,-28.19
2326.29,-28.19
2326.79,-28.18
2327.29,-28.18
2327.79,-28.18
2328.29,-28.17
2328.79,-28.17
2329.29,-28.16
2329.79,-28.16
2330.29,-28.16
2330.79,-28.15
2331.29,-28.15
2331.79,-28.14
2332.29,-28.14
2332.79,-28.14
2333.29,-28.13
2333.79,-28.13
2334.29,-28.13
2334.79,-28.12
2335.29,-28.12
2335.79,-28.11
2336.29,-28.11
2336.79,-28.11
2337.29,-28.10
2337.79,-28.10
2338.29,-28.10
2338.79,-28.09
2339.29,-28.09
2339.79,-28.08
2340.29,-28.08
2340.79,-28.08
2341.29,-28.07
2341.79,-28.07
2342.29,-28.07
2342.79,-28.06
2343.29,-28.06
2343.79,-28.06
2344.29,-28.05
2344.79,-28.05
2345.29,-28.05
2345.79,-28.04
2346.29,-28.04
2346.79,-28.04
2347.29,-28.03
2347.79,-28.03
2348.29,-28.03
2348.79,-28.02
2349.29,-28.02
2349.79,-28.02
2350.29,-28.01
2350.79,-28.01
2351.29,-28.01
2351.79,-28.00
2352.29,-28.00
2352.79,-28.00
2353.29,-27.99
2353.79,-27.99
2354.29,-27.99
2354.79,-27.99
2355.29,-27.98
2355.79,-27.98
2356.29,-27.98
2356.79,-27.97
2357.29,-27.97
2357.79,-27.97
2358.29,-27.97
2358.79,-27.96
2359.29,-27.96
2359.79,-27.96
2360.30,-27.95
2360.80,-27.95
2361.30,-27.95
2361.80,-27.95
2362.30,-27.94
2362.80,-27.94
2363.30,-27.94
2363.80,-27.93
2364.30,-27.93
2364.80,-27.93
2365.30,-27.93
2365.80,-27.92
2366.30,-27.92
2366.80,-27.92
2367.30,-27.92
2367.80,-27.91
2368.30,-27.91
2368.80,-27.91
2369.30,-27.91
2369.80,-27.90
2370.30,-27.90
2370.80,-27.90
2371.30,-27.90
2371.80,-27.89
2372.30,-27.89
2372.80,-27.89
2373.30,-27.89
2373.80,-27.88
2374.30,-27.88
2374.80,-27.88
2375.30,-27.88
2375.80,-27.88
2376.30,-27.87
2376.80,-27.87
2377.30,-27.87
2377.80,-27.87
2378.30,-27.86
2378.80,-27.86
2379.30,-27.86
2379.80,-27.86
2380.30,-27.86
2380.80,-27.85
2381.30,-27.85
2381.80,-27.85
2382.30,-27.85
2382.80,-27.85
2383.30,-27.84
2383.80,-27.84
2384.30,-27.84
2384.80,-27.84
2385.30,-27.84
2385.80,-27.83
2386.30,-27.83
2386.80,-27.83
2387.30,-27.83
2387.80,-27.83
2388.30,-27.82
2388.80,-27.82
2389.30,-27.82
2389.80,-27.82
2390.30,-27.82
2390.80,-27.82
2391.30,-27.81
2391.80,-27.81
2392.30,-27.81
2392.80,-27.81
2393.30,-27.81
2393.80,-27.80
2394.30,-27.80
2394.80,-27.80
2395.30,-27.80
2395.80,-27.80
2396.30,-27.80
2396.80,-27.79
2397.30,-27.79
2397.80,-27.79
2398.30,-27.79
2398.80,-27.79
2399.30,-27.79
2399.80,-27.79
2400.30,-27.78
2400.80,-27.78
2401.30,-27.78
2401.80,-27.78
2402.30,-27.78
2402.80,-27.78
2403.30,-27.78
2403.80,-27.77
2404.30,-27.77
2404.80,-27.77
2405.30,-27.77
2405.80,-27.77
2406.30,-27.77
2406.80,-27.77
2407.30,-27.76
2407.80,-27.76
2408.30,-27.76
2408.80,-27.76
2409.30,-27.76
2409.80,-27.76
2410.30,-27.76
2410.80,-27.76
2411.30,-27.75
2411.80,-27.75
2412.30,-27.75
2412.80,-27.75
2413.30,-27.75
2413.80,-27.75
2414.30,-27.75
2414.80,-27.75
2415.30,-27.75
2415.80,-27.74
2416.30,-27.74
2416.80,-27.74
2417.30,-27.74
2417.80,-27.74
2418.30,-27.74
2418.80,-27.74
2419.30,-27.74
2419.80,-27.74
2420.30,-27.74
2420.80,-27.73
2421.30,-27.73
2421.80,-27.73
2422.30,-27.73
2422.80,-27.73
2423.30,-27.73
2423.80,-27.73
2424.30,-27.73
2424.80,-27.73
2425.30,-27.73
2425.80,-27.73
2426.30,-27.73
2426.80,-27.72
2427.30,-27.72
2427.80,-27.72
2428.30,-27.72
2428.80,-27.72
2429.30,-27.72
2429.80,-27.72
2430.30,-27.72
2430.80,-27.72
2431.30,-27.72
2431.80,-27.72
2432.30,-27.72
2432.80,-27.72
2433.30,-27.72
2433.80,-27.72
2434.30,-27.72
2434.80,-27.71
2435.30,-27.71
2435.80,-27.71
2436.30,-27.71
2436.80,-27.71
2437.30,-27.71
2437.80,-27.71
2438.30,-27.71
2438.80,-27.71
2439.30,-27.71
2439.80,-27.71
2440.31,-27.71
2440.81,-27.71
2441.31,-27.71
2441.81,-27.71
2442.31,-27.71
2442.81,-27.71
2443.31,-27.71
2443.81,-27.71
2444.31,-27.71
2444.81,-27.71
2445.31,-27.71
2445.81,-27.71
2446.31,-27.71
2446.81,-27.71
2447.31,-27.71
2447.81,-27.70
2448.31,-27.70
2448.81,-27.70
2449.31,-27.70
2449.81,-27.70
2450.31,-27.70
2450.81,-27.70
2451.31,-27.70
2451.81,-27.70
2452.31,-27.70
2452.81,-27.70
2453.31,-27.70
2453.81,-27.70
2454.31,-27.70
2454.81,-27.70
2455.31,-27.70
2455.81,-27.70
2456.31,-27.70
2456.81,-27.70
2457.31,-27.70
2457.81,-27.70
2458.31,-27.70
2458.81,-27.70
2459.31,-27.70
2459.81,-27.70
2460.31,-27.70
2460.81,-27.70
2461.31,-27.70
2461.81,-27.70
2462.31,-27.70
2462.81,-27.70
2463.31,-27.70
2463.81,-27.70
2464.31,-27.70
2464.81,-27.70
2465.31,-27.70
2465.81,-27.70
2466.31,-27.70
2466.81,-27.71
2467.31,-27.71
2467.81,-27.71
2468.31,-27.71
2468.81,-27.71
2469.31,-27.71
2469.81,-27.71
2470.31,-27.71
2470.81,-27.71
2471.31,-27.71
2471.81,-27.71
2472.31,-27.71
2472.81,-27.71
2473.31,-27.71
2473.81,-27.71
2474.31,-27.71
2474.81,-27.71
2475.31,-27.71
2475.81,-27.71
2476.31,-27.71
2476.81,-27.71
2477.31,-27.71
2477.81,-27.71
2478.31,-27.71
2478.81,-27.71
2479.31,-27.71
2479.81,-27.71
2480.31,-27.72
2480.81,-27.72
2481.31,-27.72
2481.81,-27.72
2482.31,-27.72
2482.81,-27.72
2483.31,-27.72
2483.81,-27.72
2484.31,-27.72
2484.81,-27.72
2485.31,-27.72
2485.81,-27.72
2486.31,-27.72
2486.81,-27.72
2487.31,-27.72
2487.81,-27.72
2488.31,-27.73
2488.81,-27.73
2489.31,-27.73
2489.81,-27.73
2490.31,-27.73
2490.81,-27.73
2491.31,-27.73
2491.81,-27.73
2492.31,-27.73
2492.81,-27.73
2493.31,-27.73
2493.81,-27.73
2494.31,-27.73
2494.81,-27.74
2495.31,-27.74
2495.81,-27.74
2496.31,-27.74
2496.81,-27.74
2497.31,-27.74
2497.81,-27.74
2498.31,-27.74
2498.81,-27.74
2499.31,-27.74
2499.81,-27.74
2500.31,-27.75
2500.81,-27.75
2501.31,-27.75
2501.81,-27.75
2502.31,-27.75
2502.81,-27.75
2503.31,-27.75
2503.81,-27.75
2504.31,-27.75
2504.81,-27.75
2505.31,-27.76
2505.81,-27.76
2506.31,-27.76
2506.81,-27.76
2507.31,-27.76
2507.81,-27.76
2508.31,-27.76
2508.81,-27.76
2509.31,-27.76
2509.81,-27.76
2510.31,-27.77
2510.81,-27.77
2511.31,-27.77
2511.81,-27.77
2512.31,-27.77
2512.81,-27.77
2513.31,-27.77
2513.81,-27.77
2514.31,-27.78
2514.81,-27.78
2515.31,-27.78
2515.81,-27.78
2516.31,-27.78
2516.81,-27.78
2517.31,-27.78
2517.81,-27.78
2518.31,-27.79
2518.81,-27.79
2519.31,-27.79
2519.81,-27.79
2520.32,-27.79
2520.82,-27.79
2521.32,-27.79
2521.82,-27.79
2522.32,-27.80
2522.82,-27.80
2523.32,-27.80
2523.82,-27.80
2524.32,-27.80
2524.82,-27.80
2525.32,-27.80
2525.82,-27.81
2526.32,-27.81
2526.82,-27.81
2527.32,-27.81
2527.82,-27.81
2528.32,-27.81
2528.82,-27.81
2529.32,-27.82
2529.82,-27.82
2530.32,-27.82
2530.82,-27.82
2531.32,-27.82
2531.82,-27.82
2532.32,-27.83
2532.82,-27.83
2533.32,-27.83
2533.82,-27.83
2534.32,-27.83
2534.82,-27.83
2535.32,-27.84
2535.82,-27.84
2536.32,-27.84
2536.82,-27.84
2537.32,-27.84
2537.82,-27.84
2538.32,-27.85
2538.82,-27.85
2539.32,-27.85
2539.82,-27.85
2540.32,-27.85
2540.82,-27.85
2541.32,-27.86
2541.82,-27.86
2542.32,-27.86
2542.82,-27.86
2543.32,-27.86
2543.82,-27.86
2544.32,-27.87
2544.82,-27.87
2545.32,-27.87
2545.82,-27.87
2546.32,-27.87
2546.82,-27.87
2547.32,-27.88
2547.82,-27.88
2548.32,-27.88
2548.82,-27.88
2549.32,-27.88
2549.82,-27.89
2550.32,-27.89
2550.82,-27.89
2551.32,-27.89
2551.82,-27.89
2552.32,-27.90
2552.82,-27.90
2553.32,-27.90
2553.82,-27.90
2554.32,-27.90
2554.82,-27.90
2555.32,-27.91
2555.82,-27.91
2556.32,-27.91
2556.82,-27.91
2557.32,-27.91
2557.82,-27.92
2558.32,-27.92
2558.82,-27.92
2559.32,-27.92
2559.82,-27.92
2560.32,-27.93
2560.82,-27.93
2561.32,-27.93
2561.82,-27.93
2562.32,-27.94
2562.82,-27.94
2563.32,-27.94
2563.82,-27.94
2564.32,-27.94
2564.82,-27.95
2565.32,-27.95
2565.82,-27.95
2566.32,-27.95
2566.82,-27.95
2567.32,-27.96
2567.82,-27.96
2568.32,-27.96
2568.82,-27.96
2569.32,-27.97
2569.82,-27.97
2570.32,-27.97
2570.82,-27.97
2571.32,-27.97
2571.82,-27.98
2572.32,-27.98
2572.82,-27.98
2573.32,-27.98
2573.82,-27.99
2574.32,-27.99
2574.82,-27.99
2575.32,-27.99
2575.82,-27.99
2576.32,-28.00
2576.82,-28.00
2577.32,-28.00
2577.82,-28.00
2578.32,-28.01
2578.82,-28.01
2579.32,-28.01
2579.82,-28.01
2580.32,-28.02
2580.82,-28.02
2581.32,-28.02
2581.82,-28.02
2582.32,-28.03
2582.82,-28.03
2583.32,-28.03
2583.82,-28.03
2584.32,-28.04
2584.82,-28.04
2585.32,-28.04
2585.82,-28.04
2586.32,-28.04
2586.82,-28.05
2587.32,-28.05
2587.82,-28.05
2588.32,-28.05
2588.82,-28.06
2589.32,-28.06
2589.82,-28.06
2590.32,-28.06
2590.82,-28.07
2591.32,-28.07
2591.82,-28.07
2592.32,-28.08
2592.82,-28.08
2593.32,-28.08
2593.82,-28.08
2594.32,-28.09
2594.82,-28.09
2595.32,-28.09
2595.82,-28.09
2596.32,-28.10
2596.82,-28.10
2597.32,-28.10
2597.82,-28.10
2598.32,-28.11
2598.82,-28.11
2599.32,-28.11
2599.82,-28.11
2600.33,-28.12
2600.83,-28.12
2601.33,-28.12
2601.83,-28.13
2602.33,-28.13
2602.83,-28.13
2603.33,-28.13
2603.83,-28.14
2604.33,-28.14
2604.83,-28.14
2605.33,-28.14
2605.83,-28.15
2606.33,-28.15
2606.83,-28.15
2607.33,-28.16
2607.83,-28.16
2608.33,-28.16
2608.83,-28.16
2609.33,-28.17
2609.83,-28.17
2610.33,-28.17
2610.83,-28.18
2611.33,-28.18
2611.83,-28.18
2612.33,-28.18
2612.83,-28.19
2613.33,-28.19
2613.83,-28.19
2614.33,-28.20
2614.83,-28.20
2615.33,-28.20
2615.83,-28.20
2616.33,-28.21
2616.83,-28.21
2617.33,-28.21
2617.83,-28.22
2618.33,-28.22
2618.83,-28.22
2619.33,-28.23
2619.83,-28.23
2620.33,-28.23
2620.83,-28.23
2621.33,-28.24
2621.83,-28.24
2622.33,-28.24
2622.83,-28.25
2623.33,-28.25
2623.83,-28.25
2624.33,-28.26
2624.83,-28.26
2625.33,-28.26
2625.83,-28.26
2626.33,-28.27
2626.83,-28.27
2627.33,-28.27
2627.83,-28.28
2628.33,-28.28
2628.83,-28.28
2629.33,-28.29
2629.83,-28.29
2630.33,-28.29
2630.83,-28.30
2631.33,-28.30
2631.83,-28.30
2632.33,-28.31
2632.83,-28.31
2633.33,-28.31
2633.83,-28.31
2634.33,-28.32
2634.83,-28.32
2635.33,-28.32
2635.83,-28.33
2636.33,-28.33
2636.83,-28.33
2637.33,-28.34
2637.83,-28.34
2638.33,-28.34
2638.83,-28.35
2639.33,-28.35
2639.83,-28.35
2640.33,-28.36
2640.83,-28.36
2641.33,-28.36
2641.83,-28.37
2642.33,-28.37
2642.83,-28.37
2643.33,-28.38
2643.83,-28.38
2644.33,-28.38
2644.83,-28.39
2645.33,-28.39
2645.83,-28.39
2646.33,-28.40
2646.83,-28.40
2647.33,-28.40
2647.83,-28.41
2648.33,-28.41
2648.83,-28.41
2649.33,-28.42
2649.83,-28.42
2650.33,-28.42
2650.83,-28.43
2651.33,-28.43
2651.83,-28.43
2652.33,-28.44
2652.83,-28.44
2653.33,-28.44
2653.83,-28.45
2654.33,-28.45
2654.83,-28.45
2655.33,-28.46
2655.83,-28.46
2656.33,-28.47
2656.83,-28.47
2657.33,-28.47
2657.83,-28.48
2658.33,-28.48
2658.83,-28.48
2659.33,-28.49
2659.83,-28.49
2660.33,-28.49
2660.83,-28.50
2661.33,-28.50
2661.83,-28.50
2662.33,-28.51
2662.83,-28.51
2663.33,-28.52
2663.83,-28.52
2664.33,-28.52
2664.83,-28.53
2665.33,-28.53
2665.83,-28.53
2666.33,-28.54
2666.83,-28.54
2667.33,-28.54
2667.83,-28.55
2668.33,-28.55
2668.83,-28.56
2669.33,-28.56
2669.83,-28.56
2670.33,-28.57
2670.83,-28.57
2671.33,-28.57
2671.83,-28.58
2672.33,-28.58
2672.83,-28.58
2673.33,-28.59
2673.83,-28.59
2674.33,-28.60
2674.83,-28.60
2675.33,-28.60
2675.83,-28.61
2676.33,-28.61
2676.83,-28.61
2677.33,-28.62
2677.83,-28.62
2678.33,-28.63
2678.83,-28.63
2679.33,-28.63
2679.83,-28.64
2680.34,-28.64
2680.84,-28.65
2681.34,-28.65
2681.84,-28.65
2682.34,-28.66
2682.84,-28.66
2683.34,-28.66
2683.84,-28.67
2684.34,-28.67
2684.84,-28.68
2685.34,-28.68
2685.84,-28.68
2686.34,-28.69
2686.84,-28.69
2687.34,-28.70
2687.84,-28.70
2688.34,-28.70
2688.84,-28.71
2689.34,-28.71
2689.84,-28.72
2690.34,-28.72
2690.84,-28.72
2691.34,-28.73
2691.84,-28.73
2692.34,-28.74
2692.84,-28.74
2693.34,-28.74
2693.84,-28.75
2694.34,-28.75
2694.84,-28.76
2695.34,-28.76
2695.84,-28.76
2696.34,-28.77
2696.84,-28.77
2697.34,-28.78
2697.84,-28.78
2698.34,-28.78
2698.84,-28.79
2699.34,-28.79
2699.84,-28.80
2700.34,-28.80
2700.84,-28.80
2701.34,-28.81
2701.84,-28.81
2702.34,-28.82
2702.84,-28.82
2703.34,-28.82
2703.84,-28.83
2704.34,-28.83
2704.84,-28.84
2705.34,-28.84
2705.84,-28.84
2706.34,-28.85
2706.84,-28.85
2707.34,-28.86
2707.84,-28.86
2708.34,-28.87
2708.84,-28.87
2709.34,-28.87
2709.84,-28.88
2710.34,-28.88
2710.84,-28.89
2711.34,-28.89
2711.84,-28.90
2712.34,-28.90
2712.84,-28.90
2713.34,-28.91
2713.84,-28.91
2714.34,-28.92
2714.84,-28.92
2715.34,-28.92
2715.84,-28.93
2716.34,-28.93
2716.84,-28.94
2717.34,-28.94
2717.84,-28.95
2718.34,-28.95
2718.84,-28.96
2719.34,-28.96
2719.84,-28.96
2720.34,-28.97
2720.84,-28.97
2721.34,-28.98
2721.84,-28.98
2722.34,-28.99
2722.84,-28.99
2723.34,-28.99
2723.84,-29.00
2724.34,-29.00
2724.84,-29.01
2725.34,-29.01
2725.84,-29.02
2726.34,-29.02
2726.84,-29.02
2727.34,-29.03
2727.84,-29.03
2728.34,-29.04
2728.84,-29.04
2729.34,-29.05
2729.84,-29.05
2730.34,-29.06
2730.84,-29.06
2731.34,-29.06
2731.84,-29.07
2732.34,-29.07
2732.84,-29.08
2733.34,-29.08
2733.84,-29.09
2734.34,-29.09
2734.84,-29.10
2735.34,-29.10
2735.84,-29.11
2736.34,-29.11
2736.84,-29.11
2737.34,-29.12
2737.84,-29.12
2738.34,-29.13
2738.84,-29.13
2739.34,-29.14
2739.84,-29.14
2740.34,-29.15
2740.84,-29.15
2741.34,-29.16
2741.84,-29.16
2742.34,-29.16
2742.84,-29.17
2743.34,-29.17
2743.84,-29.18
2744.34,-29.18
2744.84,-29.19
2745.34,-29.19
2745.84,-29.20
2746.34,-29.20
2746.84,-29.21
2747.34,-29.21
2747.84,-29.22
2748.34,-29.22
2748.84,-29.23
2749.34,-29.23
2749.84,-29.23
2750.34,-29.24
2750.84,-29.24
2751.34,-29.25
2751.84,-29.25
2752.34,-29.26
2752.84,-29.26
2753.34,-29.27
2753.84,-29.27
2754.34,-29.28
2754.84,-29.28
2755.34,-29.29
2755.84,-29.29
2756.34,-29.30
2756.84,-29.30
2757.34,-29.31
2757.84,-29.31
2758.34,-29.32
2758.84,-29.32
2759.34,-29.32
2759.84,-29.33
2760.35,-29.33
2760.85,-29.34
2761.35,-29.34
2761.85,-29.35
2762.35,-29.35
2762.85,-29.36
2763.35,-29.36
2763.85,-29.37
2764.35,-29.37
2764.85,-29.38
2765.35,-29.38
2765.85,-29.39
2766.35,-29.39
2766.85,-29.40
2767.35,-29.40
2767.85,-29.41
2768.35,-29.41
2768.85,-29.42
2769.35,-29.42
2769.85,-29.43
2770.35,-29.43
2770.85,-29.44
2771.35,-29.44
2771.85,-29.45
2772.35,-29.45
2772.85,-29.46
2773.35,-29.46
2773.85,-29.47
2774.35,-29.47
2774.85,-29.48
2775.35,-29.48
2775.85,-29.49
2776.35,-29.49
2776.85,-29.50
2777.35,-29.50
2777.85,-29.51
2778.35,-29.51
2778.85,-29.52
2779.35,-29.52
2779.85,-29.53
2780.35,-29.53
2780.85,-29.54
2781.35,-29.54
2781.85,-29.55
2782.35,-29.55
2782.85,-29.56
2783.35,-29.56
2783.85,-29.57
2784.35,-29.57
2784.85,-29.58
2785.35,-29.58
2785.85,-29.59
2786.35,-29.59
2786.85,-29.60
2787.35,-29.60
2787.85,-29.61
2788.35,-29.61
2788.85,-29.62
2789.35,-29.62
2789.85,-29.63
2790.35,-29.63
2790.85,-29.64
2791.35,-29.64
2791.85,-29.65
2792.35,-29.65
2792.85,-29.66
2793.35,-29.67
2793.85,-29.67
2794.35,-29.68
2794.85,-29.68
2795.35,-29.69
2795.85,-29.69
2796.35,-29.70
2796.85,-29.70
2797.35,-29.71
2797.85,-29.71
2798.35,-29.72
2798.85,-29.72
2799.35,-29.73
2799.85,-29.73
2800.35,-29.74
2800.85,-29.74
2801.35,-29.75
2801.85,-29.75
2802.35,-29.76
2802.85,-29.77
2803.35,-29.77
2803.85,-29.78
2804.35,-29.78
2804.85,-29.79
2805.35,-29.79
2805.85,-29.80
2806.35,-29.80
2806.85,-29.81
2807.35,-29.81
2807.85,-29.82
2808.35,-29.82
2808.85,-29.83
2809.35,-29.83
2809.85,-29.84
2810.35,-29.85
2810.85,-29.85
2811.35,-29.86
2811.85,-29.86
2812.35,-29.87
2812.85,-29.87
2813.35,-29.88
2813.85,-29.88
2814.35,-29.89
2814.85,-29.89
2815.35,-29.90
2815.85,-29.91
2816.35,-29.91
2816.85,-29.92
2817.35,-29.92
2817.85,-29.93
2818.35,-29.93
2818.85,-29.94
2819.35,-29.94
2819.85,-29.95
2820.35,-29.95
2820.85,-29.96
2821.35,-29.97
2821.85,-29.97
2822.35,-29.98
2822.85,-29.98
2823.35,-29.99
2823.85,-29.99
2824.35,-30.00
2824.85,-30.00
2825.35,-30.01
2825.85,-30.02
2826.35,-30.02
2826.85,-30.03
2827.35,-30.03
2827.85,-30.04
2828.35,-30.04
2828.85,-30.05
2829.35,-30.06
2829.85,-30.06
2830.35,-30.07
2830.85,-30.07
2831.35,-30.08
2831.85,-30.08
2832.35,-30.09
2832.85,-30.09
2833.35,-30.10
2833.85,-30.11
2834.35,-30.11
2834.85,-30.12
2835.35,-30.12
2835.85,-30.13
2836.35,-30.13
2836.85,-30.14
2837.35,-30.15
2837.85,-30.15
2838.35,-30.16
2838.85,-30.16
2839.35,-30.17
2839.85,-30.17
2840.36,-30.18
2840.86,-30.19
2841.36,-30.19
2841.86,-30.20
2842.36,-30.20
2842.86,-30.21
2843.36,-30.21
2843.86,-30.22
2844.36,-30.23
2844.86,-30.23
2845.36,-30.24
2845.86,-30.24
2846.36,-30.25
2846.86,-30.26
2847.36,-30.26
2847.86,-30.27
2848.36,-30.27
2848.86,-30.28
2849.36,-30.28
2849.86,-30.29
2850.36,-30.30
2850.86,-30.30
2851.36,-30.31
2851.86,-30.31
2852.36,-30.32
2852.86,-30.33
2853.36,-30.33
2853.86,-30.34
2854.36,-30.34
2854.86,-30.35
2855.36,-30.35
2855.86,-30.36
2856.36,-30.37
2856.86,-30.37
2857.36,-30.38
2857.86,-30.38
2858.36,-30.39
2858.86,-30.40
2859.36,-30.40
2859.86,-30.41
2860.36,-30.41
2860.86,-30.42
2861.36,-30.43
2861.86,-30.43
2862.36,-30.44
2862.86,-30.44
2863.36,-30.45
2863.86,-30.46
2864.36,-30.46
2864.86,-30.47
2865.36,-30.47
2865.86,-30.48
2866.36,-30.49
2866.86,-30.49
2867.36,-30.50
2867.86,-30.50
2868.36,-30.51
2868.86,-30.52
2869.36,-30.52
2869.86,-30.53
2870.36,-30.53
2870.86,-30.54
2871.36,-30.55
2871.86,-30.55
2872.36,-30.56
2872.86,-30.57
2873.36,-30.57
2873.86,-30.58
2874.36,-30.58
2874.86,-30.59
2875.36,-30.60
2875.86,-30.60
2876.36,-30.61
2876.86,-30.61
2877.36,-30.62
2877.86,-30.63
2878.36,-30.63
2878.86,-30.64
2879.36,-30.65
2879.86,-30.65
2880.36,-30.66
2880.86,-30.66
2881.36,-30.67
2881.86,-30.68
2882.36,-30.68
2882.86,-30.69
2883.36,-30.69
2883.86,-30.70
2884.36,-30.71
2884.86,-30.71
2885.36,-30.72
2885.86,-30.73
2886.36,-30.73
2886.86,-30.74
2887.36,-30.74
2887.86,-30.75
2888.36,-30.76
2888.86,-30.76
2889.36,-30.77
2889.86,-30.78
2890.36,-30.78
2890.86,-30.79
2891.36,-30.80
2891.86,-30.80
2892.36,-30.81
2892.86,-30.81
2893.36,-30.82
2893.86,-30.83
2894.36,-30.83
2894.86,-30.84
2895.36,-30.85
2895.86,-30.85
2896.36,-30.86
2896.86,-30.86
2897.36,-30.87
2897.86,-30.88
2898.36,-30.88
2898.86,-30.89
2899.36,-30.90
2899.86,-30.90
2900.36,-30.91
2900.86,-30.92
2901.36,-30.92
2901.86,-30.93
2902.36,-30.94
2902.86,-30.94
2903.36,-30.95
2903.86,-30.95
2904.36,-30.96
2904.86,-30.97
2905.36,-30.97
2905.86,-30.98
2906.36,-30.99
2906.86,-30.99
2907.36,-31.00
2907.86,-31.01
2908.36,-31.01
2908.86,-31.02
2909.36,-31.03
2909.86,-31.03
2910.36,-31.04
2910.86,-31.05
2911.36,-31.05
2911.86,-31.06
2912.36,-31.07
2912.86,-31.07
2913.36,-31.08
2913.86,-31.09
2914.36,-31.09
2914.86,-31.10
2915.36,-31.10
2915.86,-31.11
2916.36,-31.12
2916.86,-31.12
2917.36,-31.13
2917.86,-31.14
2918.36,-31.14
2918.86,-31.15
2919.36,-31.16
2919.86,-31.16
2920.37,-31.17
2920.87,-31.18
2921.37,-31.18
2921.87,-31.19
2922.37,-31.20
2922.87,-31.20
2923.37,-31.21
2923.87,-31.22
2924.37,-31.22
2924.87,-31.23
2925.37,-31.24
2925.87,-31.24
2926.37,-31.25
2926.87,-31.26
2927.37,-31.26
2927.87,-31.27
2928.37,-31.28
2928.87,-31.28
2929.37,-31.29
2929.87,-31.30
2930.37,-31.30
2930.87,-31.31
2931.37,-31.32
2931.87,-31.33
2932.37,-31.33
2932.87,-31.34
2933.37,-31.35
2933.87,-31.35
2934.37,-31.36
2934.87,-31.37
2935.37,-31.37
2935.87,-31.38
2936.37,-31.39
2936.87,-31.39
2937.37,-31.40
2937.87,-31.41
2938.37,-31.41
2938.87,-31.42
2939.37,-31.43
2939.87,-31.43
2940.37,-31.44
2940.87,-31.45
2941.37,-31.45
2941.87,-31.46
2942.37,-31.47
2942.87,-31.48
2943.37,-31.48
2943.87,-31.49
2944.37,-31.50
2944.87,-31.50
2945.37,-31.51
2945.87,-31.52
2946.37,-31.52
2946.87,-31.53
2947.37,-31.54
2947.87,-31.54
2948.37,-31.55
2948.87,-31.56
2949.37,-31.57
2949.87,-31.57
2950.37,-31.58
2950.87,-31.59
2951.37,-31.59
2951.87,-31.60
2952.37,-31.61
2952.87,-31.61
2953.37,-31.62
2953.87,-31.63
2954.37,-31.64
2954.87,-31.64
2955.37,-31.65
2955.87,-31.66
2956.37,-31.66
2956.87,-31.67
2957.37,-31.68
2957.87,-31.68
2958.37,-31.69
2958.87,-31.70
2959.37,-31.71
2959.87,-31.71
2960.37,-31.72
2960.87,-31.73
2961.37,-31.73
2961.87,-31.74
2962.37,-31.75
2962.87,-31.76
2963.37,-31.76
2963.87,-31.77
2964.37,-31.78
2964.87,-31.78
2965.37,-31.79
2965.87,-31.80
2966.37,-31.81
2966.87,-31.81
2967.37,-31.82
2967.87,-31.83
2968.37,-31.83
2968.87,-31.84
2969.37,-31.85
2969.87,-31.86
2970.37,-31.86
2970.87,-31.87
2971.37,-31.88
2971.87,-31.89
2972.37,-31.89
2972.87,-31.90
2973.37,-31.91
2973.87,-31.91
2974.37,-31.92
2974.87,-31.93
2975.37,-31.94
2975.87,-31.94
2976.37,-31.95
2976.87,-31.96
2977.37,-31.96
2977.87,-31.97
2978.37,-31.98
2978.87,-31.99
2979.37,-31.99
2979.87,-32.00
2980.37,-32.01
2980.87,-32.02
2981.37,-32.02
2981.87,-32.03
2982.37,-32.04
2982.87,-32.05
2983.37,-32.05
2983.87,-32.06
2984.37,-32.07
2984.87,-32.07
2985.37,-32.08
2985.87,-32.09
2986.37,-32.10
2986.87,-32.10
2987.37,-32.11
2987.87,-32.12
2988.37,-32.13
2988.87,-32.13
2989.37,-32.14
2989.87,-32.15
2990.37,-32.16
2990.87,-32.16
2991.37,-32.17
2991.87,-32.18
2992.37,-32.19
2992.87,-32.19
2993.37,-32.20
2993.87,-32.21
2994.37,-32.22
2994.87,-32.22
2995.37,-32.23
2995.87,-32.24
2996.37,-32.25
2996.87,-32.25
2997.37,-32.26
2997.87,-32.27
2998.37,-32.28
2998.87,-32.28
2999.37,-32.29
2999.87,-32.30
3000.38,-32.31
3000.88,-32.31
3001.38,-32.32
3001.88,-32.33
3002.38,-32.34
3002.88,-32.34
3003.38,-32.35
3003.88,-32.36
3004.38,-32.37
3004.88,-32.37
3005.38,-32.38
3005.88,-32.39
3006.38,-32.40
3006.88,-32.41
3007.38,-32.41
3007.88,-32.42
3008.38,-32.43
3008.88,-32.44
3009.38,-32.44
3009.88,-32.45
3010.38,-32.46
3010.88,-32.47
3011.38,-32.47
3011.88,-32.48
3012.38,-32.49
3012.88,-32.50
3013.38,-32.50
3013.88,-32.51
3014.38,-32.52
3014.88,-32.53
3015.38,-32.54
3015.88,-32.54
3016.38,-32.55
3016.88,-32.56
3017.38,-32.57
3017.88,-32.57
3018.38,-32.58
3018.88,-32.59
3019.38,-32.60
3019.88,-32.61
3020.38,-32.61
3020.88,-32.62
3021.38,-32.63
3021.88,-32.64
3022.38,-32.64
3022.88,-32.65
3023.38,-32.66
3023.88,-32.67
3024.38,-32.68
3024.88,-32.68
3025.38,-32.69
3025.88,-32.70
3026.38,-32.71
3026.88,-32.72
3027.38,-32.72
3027.88,-32.73
3028.38,-32.74
3028.88,-32.75
3029.38,-32.75
3029.88,-32.76
3030.38,-32.77
3030.88,-32.78
3031.38,-32.79
3031.88,-32.79
3032.38,-32.80
3032.88,-32.81
3033.38,-32.82
3033.88,-32.83
3034.38,-32.83
3034.88,-32.84
3035.38,-32.85
3035.88,-32.86
3036.38,-32.87
3036.88,-32.87
3037.38,-32.88
3037.88,-32.89
3038.38,-32.90
3038.88,-32.91
3039.38,-32.91
3039.88,-32.92
3040.38,-32.93
3040.88,-32.94
3041.38,-32.95
3041.88,-32.95
3042.38,-32.96
3042.88,-32.97
3043.38,-32.98
3043.88,-32.99
3044.38,-32.99
3044.88,-33.00
3045.38,-33.01
3045.88,-33.02
3046.38,-33.03
3046.88,-33.03
3047.38,-33.04
3047.88,-33.05
3048.38,-33.06
3048.88,-33.07
3049.38,-33.08
3049.88,-33.08
3050.38,-33.09
3050.88,-33.10
3051.38,-33.11
3051.88,-33.12
3052.38,-33.12
3052.88,-33.13
3053.38,-33.14
3053.88,-33.15
3054.38,-33.16
3054.88,-33.17
3055.38,-33.17
3055.88,-33.18
3056.38,-33.19
3056.88,-33.20
3057.38,-33.21
3057.88,-33.21
3058.38,-33.22
3058.88,-33.23
3059.38,-33.24
3059.88,-33.25
3060.38,-33.26
3060.88,-33.26
3061.38,-33.27
3061.88,-33.28
3062.38,-33.29
3062.88,-33.30
3063.38,-33.31
3063.88,-33.31
3064.38,-33.32
3064.88,-33.33
3065.38,-33.34
3065.88,-33.35
3066.38,-33.36
3066.88,-33.36
3067.38,-33.37
3067.88,-33.38
3068.38,-33.39
3068.88,-33.40
3069.38,-33.41
3069.88,-33.41
3070.38,-33.42
3070.88,-33.43
3071.38,-33.44
3071.88,-33.45
3072.38,-33.46
3072.88,-33.47
3073.38,-33.47
3073.88,-33.48
3074.38,-33.49
3074.88,-33.50
3075.38,-33.51
3075.88,-33.52
3076.38,-33.52
3076.88,-33.53
3077.38,-33.54
3077.88,-33.55
3078.38,-33.56
3078.88,-33.57
3079.38,-33.58
3079.88,-33.58
3080.39,-33.59
3080.89,-33.60
3081.39,-33.61
3081.89,-33.62
3082.39,-33.63
3082.89,-33.64
3083.39,-33.64
3083.89,-33.65
3084.39,-33.66
3084.89,-33.67
3085.39,-33.68
3085.89,-33.69
3086.39,-33.70
3086.89,-33.70
3087.39,-33.71
3087.89,-33.72
3088.39,-33.73
3088.89,-33.74
3089.39,-33.75
3089.89,-33.76
3090.39,-33.76
3090.89,-33.77
3091.39,-33.78
3091.89,-33.79
3092.39,-33.80
3092.89,-33.81
3093.39,-33.82
3093.89,-33.83
3094.39,-33.83
3094.89,-33.84
3095.39,-33.85
3095.89,-33.86
3096.39,-33.87
3096.89,-33.88
3097.39,-33.89
3097.89,-33.90
3098.39,-33.90
3098.89,-33.91
3099.39,-33.92
3099.89,-33.93
3100.39,-33.94
3100.89,-33.95
3101.39,-33.96
3101.89,-33.97
3102.39,-33.97
3102.89,-33.98
3103.39,-33.99
3103.89,-34.00
3104.39,-34.01
3104.89,-34.02
3105.39,-34.03
3105.89,-34.04
3106.39,-34.04
3106.89,-34.05
3107.39,-34.06
3107.89,-34.07
3108.39,-34.08
3108.89,-34.09
3109.39,-34.10
3109.89,-34.11
3110.39,-34.12
3110.89,-34.12
3111.39,-34.13
3111.89,-34.14
3112.39,-34.15
3112.89,-34.16
3113.39,-34.17
3113.89,-34.18
3114.39,-34.19
3114.89,-34.20
3115.39,-34.21
3115.89,-34.21
3116.39,-34.22
3116.89,-34.23
3117.39,-34.24
3117.89,-34.25
3118.39,-34.26
3118.89,-34.27
3119.39,-34.28
3119.89,-34.29
3120.39,-34.30
3120.89,-34.30
3121.39,-34.31
3121.89,-34.32
3122.39,-34.33
3122.89,-34.34
3123.39,-34.35
3123.89,-34.36
3124.39,-34.37
3124.89,-34.38
3125.39,-34.39
3125.89,-34.40
3126.39,-34.40
3126.89,-34.41
3127.39,-34.42
3127.89,-34.43
3128.39,-34.44
3128.89,-34.45
3129.39,-34.46
3129.89,-34.47
3130.39,-34.48
3130.89,-34.49
3131.39,-34.50
3131.89,-34.51
3132.39,-34.51
3132.89,-34.52
3133.39,-34.53
3133.89,-34.54
3134.39,-34.55
3134.89,-34.56
3135.39,-34.57
3135.89,-34.58
3136.39,-34.59
3136.89,-34.60
3137.39,-34.61
3137.89,-34.62
3138.39,-34.63
3138.89,-34.64
3139.39,-34.64
3139.89,-34.65
3140.39,-34.66
3140.89,-34.67
3141.39,-34.68
3141.89,-34.69
3142.39,-34.70
3142.89,-34.71
3143.39,-34.72
3143.89,-34.73
3144.39,-34.74
3144.89,-34.75
3145.39,-34.76
3145.89,-34.77
3146.39,-34.78
3146.89,-34.79
3147.39,-34.79
3147.89,-34.80
3148.39,-34.81
3148.89,-34.82
3149.39,-34.83
3149.89,-34.84
3150.39,-34.85
3150.89,-34.86
3151.39,-34.87
3151.89,-34.88
3152.39,-34.89
3152.89,-34.90
3153.39,-34.91
3153.89,-34.92
3154.39,-34.93
3154.89,-34.94
3155.39,-34.95
3155.89,-34.96
3156.39,-34.97
3156.89,-34.97
3157.39,-34.98
3157.89,-34.99
3158.39,-35.00
3158.89,-35.01
3159.39,-35.02
3159.89,-35.03
3160.40,-35.04
3160.90,-35.05
3161.40,-35.06
3161.90,-35.07
3162.40,-35.08
3162.90,-35.09
3163.40,-35.10
3163.90,-35.11
3164.40,-35.12
3164.90,-35.13
3165.40,-35.14
3165.90,-35.15
3166.40,-35.16
3166.90,-35.17
3167.40,-35.18
3167.90,-35.19
3168.40,-35.20
3168.90,-35.21
3169.40,-35.22
3169.90,-35.23
3170.40,-35.24
3170.90,-35.25
3171.40,-35.25
3171.90,-35.26
3172.40,-35.27
3172.90,-35.28
3173.40,-35.29
3173.90,-35.30
3174.40,-35.31
3174.90,-35.32
3175.40,-35.33
3175.90,-35.34
3176.40,-35.35
3176.90,-35.36
3177.40,-35.37
3177.90,-35.38
3178.40,-35.39
3178.90,-35.40
3179.40,-35.41
3179.90,-35.42
3180.40,-35.43
3180.90,-35.44
3181.40,-35.45
3181.90,-35.46
3182.40,-35.47
3182.90,-35.48
3183.40,-35.49
3183.90,-35.50
3184.40,-35.51
3184.90,-35.52
3185.40,-35.53
3185.90,-35.54
3186.40,-35.55
3186.90,-35.56
3187.40,-35.57
3187.90,-35.58
3188.40,-35.59
3188.90,-35.60
3189.40,-35.61
3189.90,-35.62
3190.40,-35.63
3190.90,-35.64
3191.40,-35.65
3191.90,-35.66
3192.40,-35.67
3192.90,-35.68
3193.40,-35.69
3193.90,-35.70
3194.40,-35.71
3194.90,-35.72
3195.40,-35.73
3195.90,-35.74
3196.40,-35.75
3196.90,-35.76
3197.40,-35.77
3197.90,-35.78
3198.40,-35.79
3198.90,-35.80
3199.40,-35.81
3199.90,-35.82
3200.40,-35.83
3200.90,-35.84
3201.40,-35.85
3201.90,-35.86
3202.40,-35.87
3202.90,-35.88
3203.40,-35.90
3203.90,-35.91
3204.40,-35.92
3204.90,-35.93
3205.40,-35.94
3205.90,-35.95
3206.40,-35.96
3206.90,-35.97
3207.40,-35.98
3207.90,-35.99
3208.40,-36.00
3208.90,-36.01
3209.40,-36.02
3209.90,-36.03
3210.40,-36.04
3210.90,-36.05
3211.40,-36.06
3211.90,-36.07
3212.40,-36.08
3212.90,-36.09
3213.40,-36.10
3213.90,-36.11
3214.40,-36.12
3214.90,-36.13
3215.40,-36.14
3215.90,-36.15
3216.40,-36.16
3216.90,-36.17
3217.40,-36.19
3217.90,-36.20
3218.40,-36.21
3218.90,-36.22
3219.40,-36.23
3219.90,-36.24
3220.40,-36.25
3220.90,-36.26
3221.40,-36.27
3221.90,-36.28
3222.40,-36.29
3222.90,-36.30
3223.40,-36.31
3223.90,-36.32
3224.40,-36.33
3224.90,-36.34
3225.40,-36.35
3225.90,-36.36
3226.40,-36.37
3226.90,-36.39
3227.40,-36.40
3227.90,-36.41
3228.40,-36.42
3228.90,-36.43
3229.40,-36.44
3229.90,-36.45
3230.40,-36.46
3230.90,-36.47
3231.40,-36.48
3231.90,-36.49
3232.40,-36.50
3232.90,-36.51
3233.40,-36.52
3233.90,-36.53
3234.40,-36.55
3234.90,-36.56
3235.40,-36.57
3235.90,-36.58
3236.40,-36.59
3236.90,-36.60
3237.40,-36.61
3237.90,-36.62
3238.40,-36.63
3238.90,-36.64
3239.40,-36.65
3239.90,-36.66
3240.41,-36.68
3240.91,-36.69
3241.41,-36.70
3241.91,-36.71
3242.41,-36.72
3242.91,-36.73
3243.41,-36.74
3243.91,-36.75
3244.41,-36.76
3244.91,-36.77
3245.41,-36.78
3245.91,-36.79
3246.41,-36.81
3246.91,-36.82
3247.41,-36.83
3247.91,-36.84
3248.41,-36.85
3248.91,-36.86
3249.41,-36.87
3249.91,-36.88
3250.41,-36.89
3250.91,-36.90
3251.41,-36.92
3251.91,-36.93
3252.41,-36.94
3252.91,-36.95
3253.41,-36.96
3253.91,-36.97
3254.41,-36.98
3254.91,-36.99
3255.41,-37.00
3255.91,-37.02
3256.41,-37.03
3256.91,-37.04
3257.41,-37.05
3257.91,-37.06
3258.41,-37.07
3258.91,-37.08
3259.41,-37.09
3259.91,-37.10
3260.41,-37.12
3260.91,-37.13
3261.41,-37.14
3261.91,-37.15
3262.41,-37.16
3262.91,-37.17
3263.41,-37.18
3263.91,-37.19
3264.41,-37.21
3264.91,-37.22
3265.41,-37.23
3265.91,-37.24
3266.41,-37.25
3266.91,-37.26
3267.41,-37.27
3267.91,-37.28
3268.41,-37.30
3268.91,-37.31
3269.41,-37.32
3269.91,-37.33
3270.41,-37.34
3270.91,-37.35
3271.41,-37.36
3271.91,-37.37
3272.41,-37.39
3272.91,-37.40
3273.41,-37.41
3273.91,-37.42
3274.41,-37.43
3274.91,-37.44
3275.41,-37.45
3275.91,-37.47
3276.41,-37.48
3276.91,-37.49
3277.41,-37.50
3277.91,-37.51
3278.41,-37.52
3278.91,-37.54
3279.41,-37.55
3279.91,-37.56
3280.41,-37.57
3280.91,-37.58
3281.41,-37.59
3281.91,-37.60
3282.41,-37.62
3282.91,-37.63
3283.41,-37.64
3283.91,-37.65
3284.41,-37.66
3284.91,-37.67
3285.41,-37.69
3285.91,-37.70
3286.41,-37.71
3286.91,-37.72
3287.41,-37.73
3287.91,-37.74
3288.41,-37.76
3288.91,-37.77
3289.41,-37.78
3289.91,-37.79
3290.41,-37.80
3290.91,-37.81
3291.41,-37.83
3291.91,-37.84
3292.41,-37.85
3292.91,-37.86
3293.41,-37.87
3293.91,-37.88
3294.41,-37.90
3294.91,-37.91
3295.41,-37.92
3295.91,-37.93
3296.41,-37.94
3296.91,-37.96
3297.41,-37.97
3297.91,-37.98
3298.41,-37.99
3298.91,-38.00
3299.41,-38.01
3299.91,-38.03
3300.41,-38.04
3300.91,-38.05
3301.41,-38.06
3301.91,-38.07
3302.41,-38.09
3302.91,-38.10
3303.41,-38.11
3303.91,-38.12
3304.41,-38.13
3304.91,-38.15
3305.41,-38.16
3305.91,-38.17
3306.41,-38.18
3306.91,-38.19
3307.41,-38.21
3307.91,-38.22
3308.41,-38.23
3308.91,-38.24
3309.41,-38.25
3309.91,-38.27
3310.41,-38.28
3310.91,-38.29
3311.41,-38.30
3311.91,-38.31
3312.41,-38.33
3312.91,-38.34
3313.41,-38.35
3313.91,-38.36
3314.41,-38.38
3314.91,-38.39
3315.41,-38.40
3315.91,-38.41
3316.41,-38.42
3316.91,-38.44
3317.41,-38.45
3317.91,-38.46
3318.41,-38.47
3318.91,-38.49
3319.41,-38.50
3319.91,-38.51
3320.42,-38.52
3320.92,-38.53
3321.42,-38.55
3321.92,-38.56
3322.42,-38.57
3322.92,-38.58
3323.42,-38.60
3323.92,-38.61
3324.42,-38.62
3324.92,-38.63
3325.42,-38.65
3325.92,-38.66
3326.42,-38.67
3326.92,-38.68
3327.42,-38.70
3327.92,-38.71
3328.42,-38.72
3328.92,-38.73
3329.42,-38.75
3329.92,-38.76
3330.42,-38.77
3330.92,-38.78
3331.42,-38.80
3331.92,-38.81
3332.42,-38.82
3332.92,-38.83
3333.42,-38.85
3333.92,-38.86
3334.42,-38.87
3334.92,-38.88
3335.42,-38.90
3335.92,-38.91
3336.42,-38.92
3336.92,-38.93
3337.42,-38.95
3337.92,-38.96
3338.42,-38.97
3338.92,-38.98
3339.42,-39.00
3339.92,-39.01
3340.42,-39.02
3340.92,-39.04
3341.42,-39.05
3341.92,-39.06
3342.42,-39.07
3342.92,-39.09
3343.42,-39.10
3343.92,-39.11
3344.42,-39.12
3344.92,-39.14
3345.42,-39.15
3345.92,-39.16
3346.42,-39.18
3346.92,-39.19
3347.42,-39.20
3347.92,-39.21
3348.42,-39.23
3348.92,-39.24
3349.42,-39.25
3349.92,-39.27
3350.42,-39.28
3350.92,-39.29
3351.42,-39.31
3351.92,-39.32
3352.42,-39.33
3352.92,-39.34
3353.42,-39.36
3353.92,-39.37
3354.42,-39.38
3354.92,-39.40
3355.42,-39.41
3355.92,-39.42
3356.42,-39.44
3356.92,-39.45
3357.42,-39.46
3357.92,-39.47
3358.42,-39.49
3358.92,-39.50
3359.42,-39.51
3359.92,-39.53
3360.42,-39.54
3360.92,-39.55
3361.42,-39.57
3361.92,-39.58
3362.42,-39.59
3362.92,-39.61
3363.42,-39.62
3363.92,-39.63
3364.42,-39.65
3364.92,-39.66
3365.42,-39.67
3365.92,-39.69
3366.42,-39.70
3366.92,-39.71
3367.42,-39.73
3367.92,-39.74
3368.42,-39.75
3368.92,-39.77
3369.42,-39.78
3369.92,-39.79
3370.42,-39.81
3370.92,-39.82
3371.42,-39.83
3371.92,-39.85
3372.42,-39.86
3372.92,-39.87
3373.42,-39.89
3373.92,-39.90
3374.42,-39.91
3374.92,-39.93
3375.42,-39.94
3375.92,-39.95
3376.42,-39.97
3376.92,-39.98
3377.42,-39.99
3377.92,-40.01
3378.42,-40.02
3378.92,-40.03
3379.42,-40.05
3379.92,-40.06
3380.42,-40.08
3380.92,-40.09
3381.42,-40.10
3381.92,-40.12
3382.42,-40.13
3382.92,-40.14
3383.42,-40.16
3383.92,-40.17
3384.42,-40.18
3384.92,-40.20
3385.42,-40.21
3385.92,-40.23
3386.42,-40.24
3386.92,-40.25
3387.42,-40.27
3387.92,-40.28
3388.42,-40.29
3388.92,-40.31
3389.42,-40.32
3389.92,-40.34
3390.42,-40.35
3390.92,-40.36
3391.42,-40.38
3391.92,-40.39
3392.42,-40.41
3392.92,-40.42
3393.42,-40.43
3393.92,-40.45
3394.42,-40.46
3394.92,-40.48
3395.42,-40.49
3395.92,-40.50
3396.42,-40.52
3396.92,-40.53
3397.42,-40.55
3397.92,-40.56
3398.42,-40.57
3398.92,-40.59
3399.42,-40.60
3399.92,-40.62
3400.43,-40.63
3400.93,-40.64
3401.43,-40.66
3401.93,-40.67
3402.43,-40.69
3402.93,-40.70
3403.43,-40.71
3403.93,-40.73
3404.43,-40.74
3404.93,-40.76
3405.43,-40.77
3405.93,-40.79
3406.43,-40.80
3406.93,-40.81
3407.43,-40.83
3407.93,-40.84
3408.43,-40.86
3408.93,-40.87
3409.43,-40.89
3409.93,-40.90
3410.43,-40.91
3410.93,-40.93
3411.43,-40.94
3411.93,-40.96
3412.43,-40.97
3412.93,-40.99
3413.43,-41.00
3413.93,-41.01
3414.43,-41.03
3414.93,-41.04
3415.43,-41.06
3415.93,-41.07
3416.43,-41.09
3416.93,-41.10
3417.43,-41.12
3417.93,-41.13
3418.43,-41.15
3418.93,-41.16
3419.43,-41.17
3419.93,-41.19
3420.43,-41.20
3420.93,-41.22
3421.43,-41.23
3421.93,-41.25
3422.43,-41.26
3422.93,-41.28
3423.43,-41.29
3423.93,-41.31
3424.43,-41.32
3424.93,-41.34
3425.43,-41.35
3425.93,-41.37
3426.43,-41.38
3426.93,-41.40
3427.43,-41.41
3427.93,-41.42
3428.43,-41.44
3428.93,-41.45
3429.43,-41.47
3429.93,-41.48
3430.43,-41.50
3430.93,-41.51
3431.43,-41.53
3431.93,-41.54
3432.43,-41.56
3432.93,-41.57
3433.43,-41.59
3433.93,-41.60
3434.43,-41.62
3434.93,-41.63
3435.43,-41.65
3435.93,-41.66
3436.43,-41.68
3436.93,-41.69
3437.43,-41.71
3437.93,-41.72
3438.43,-41.74
3438.93,-41.75
3439.43,-41.77
3439.93,-41.78
3440.43,-41.80
3440.93,-41.82
3441.43,-41.83
3441.93,-41.85
3442.43,-41.86
3442.93,-41.88
3443.43,-41.89
3443.93,-41.91
3444.43,-41.92
3444.93,-41.94
3445.43,-41.95
3445.93,-41.97
3446.43,-41.98
3446.93,-42.00
3447.43,-42.01
3447.93,-42.03
3448.43,-42.04
3448.93,-42.06
3449.43,-42.08
3449.93,-42.09
3450.43,-42.11
3450.93,-42.12
3451.43,-42.14
3451.93,-42.15
3452.43,-42.17
3452.93,-42.18
3453.43,-42.20
3453.93,-42.22
3454.43,-42.23
3454.93,-42.25
3455.43,-42.26
3455.93,-42.28
3456.43,-42.29
3456.93,-42.31
3457.43,-42.32
3457.93,-42.34
3458.43,-42.36
3458.93,-42.37
3459.43,-42.39
3459.93,-42.40
3460.43,-42.42
3460.93,-42.43
3461.43,-42.45
3461.93,-42.47
3462.43,-42.48
3462.93,-42.50
3463.43,-42.51
3463.93,-42.53
3464.43,-42.55
3464.93,-42.56
3465.43,-42.58
3465.93,-42.59
3466.43,-42.61
3466.93,-42.63
3467.43,-42.64
3467.93,-42.66
3468.43,-42.67
3468.93,-42.69
3469.43,-42.71
3469.93,-42.72
3470.43,-42.74
3470.93,-42.75
3471.43,-42.77
3471.93,-42.79
3472.43,-42.80
3472.93,-42.82
3473.43,-42.83
3473.93,-42.85
3474.43,-42.87
3474.93,-42.88
3475.43,-42.90
3475.93,-42.92
3476.43,-42.93
3476.93,-42.95
3477.43,-42.96
3477.93,-42.98
3478.43,-43.00
3478.93,-43.01
3479.43,-43.03
3479.93,-43.05
3480.44,-43.06
3480.94,-43.08
3481.44,-43.10
3481.94,-43.11
3482.44,-43.13
3482.94,-43.14
3483.44,-43.16
3483.94,-43.18
3484.44,-43.19
3484.94,-43.21
3485.44,-43.23
3485.94,-43.24
3486.44,-43.26
3486.94,-43.28
3487.44,-43.29
3487.94,-43.31
3488.44,-43.33
3488.94,-43.34
3489.44,-43.36
3489.94,-43.38
3490.44,-43.39
3490.94,-43.41
3491.44,-43.43
3491.94,-43.44
3492.44,-43.46
3492.94,-43.48
3493.44,-43.49
3493.94,-43.51
3494.44,-43.53
3494.94,-43.55
3495.44,-43.56
3495.94,-43.58
3496.44,-43.60
3496.94,-43.61
3497.44,-43.63
3497.94,-43.65
3498.44,-43.66
3498.94,-43.68
3499.44,-43.70
3499.94,-43.72
3500.44,-43.73
3500.94,-43.75
3501.44,-43.77
3501.94,-43.78
3502.44,-43.80
3502.94,-43.82
3503.44,-43.84
3503.94,-43.85
3504.44,-43.87
3504.94,-43.89
3505.44,-43.90
3505.94,-43.92
3506.44,-43.94
3506.94,-43.96
3507.44,-43.97
3507.94,-43.99
3508.44,-44.01
3508.94,-44.03
3509.44,-44.04
3509.94,-44.06
3510.44,-44.08
3510.94,-44.10
3511.44,-44.11
3511.94,-44.13
3512.44,-44.15
3512.94,-44.17
3513.44,-44.18
3513.94,-44.20
3514.44,-44.22
3514.94,-44.24
3515.44,-44.25
3515.94,-44.27
3516.44,-44.29
3516.94,-44.31
3517.44,-44.32
3517.94,-44.34
3518.44,-44.36
3518.94,-44.38
3519.44,-44.40
3519.94,-44.41
3520.44,-44.43
3520.94,-44.45
3521.44,-44.47
3521.94,-44.48
3522.44,-44.50
3522.94,-44.52
3523.44,-44.54
3523.94,-44.56
3524.44,-44.57
3524.94,-44.59
3525.44,-44.61
3525.94,-44.63
3526.44,-44.65
3526.94,-44.66
3527.44,-44.68
3527.94,-44.70
3528.44,-44.72
3528.94,-44.74
3529.44,-44.76
3529.94,-44.77
3530.44,-44.79
3530.94,-44.81
3531.44,-44.83
3531.94,-44.85
3532.44,-44.87
3532.94,-44.88
3533.44,-44.90
3533.94,-44.92
3534.44,-44.94
3534.94,-44.96
3535.44,-44.98
3535.94,-44.99
3536.44,-45.01
3536.94,-45.03
3537.44,-45.05
3537.94,-45.07
3538.44,-45.09
3538.94,-45.10
3539.44,-45.12
3539.94,-45.14
3540.44,-45.16
3540.94,-45.18
3541.44,-45.20
3541.94,-45.22
3542.44,-45.24
3542.94,-45.25
3543.44,-45.27
3543.94,-45.29
3544.44,-45.31
3544.94,-45.33
3545.44,-45.35
3545.94,-45.37
3546.44,-45.39
3546.94,-45.40
3547.44,-45.42
3547.94,-45.44
3548.44,-45.46
3548.94,-45.48
3549.44,-45.50
3549.94,-45.52
3550.44,-45.54
3550.94,-45.56
3551.44,-45.58
3551.94,-45.60
3552.44,-45.61
3552.94,-45.63
3553.44,-45.65
3553.94,-45.67
3554.44,-45.69
3554.94,-45.71
3555.44,-45.73
3555.94,-45.75
3556.44,-45.77
3556.94,-45.79
3557.44,-45.81
3557.94,-45.83
3558.44,-45.85
3558.94,-45.87
3559.44,-45.88
3559.94,-45.90
3560.45,-45.92
3560.95,-45.94
3561.45,-45.96
3561.95,-45.98
3562.45,-46.00
3562.95,-46.02
3563.45,-46.04
3563.95,-46.06
3564.45,-46.08
3564.95,-46.10
3565.45,-46.12
3565.95,-46.14
3566.45,-46.16
3566.95,-46.18
3567.45,-46.20
3567.95,-46.22
3568.45,-46.24
3568.95,-46.26
3569.45,-46.28
3569.95,-46.30
3570.45,-46.32
3570.95,-46.34
3571.45,-46.36
3571.95,-46.38
3572.45,-46.40
3572.95,-46.42
3573.45,-46.44
3573.95,-46.46
3574.45,-46.48
3574.95,-46.50
3575.45,-46.52
3575.95,-46.54
3576.45,-46.56
3576.95,-46.58
3577.45,-46.60
3577.95,-46.62
3578.45,-46.64
3578.95,-46.66
3579.45,-46.68
3579.95,-46.70
3580.45,-46.72
3580.95,-46.74
3581.45,-46.76
3581.95,-46.79
3582.45,-46.81
3582.95,-46.83
3583.45,-46.85
3583.95,-46.87
3584.45,-46.89
3584.95,-46.91
3585.45,-46.93
3585.95,-46.95
3586.45,-46.97
3586.95,-46.99
3587.45,-47.01
3587.95,-47.03
3588.45,-47.05
3588.95,-47.08
3589.45,-47.10
3589.95,-47.12
3590.45,-47.14
3590.95,-47.16
3591.45,-47.18
3591.95,-47.20
3592.45,-47.22
3592.95,-47.24
3593.45,-47.26
3593.95,-47.29
3594.45,-47.31
3594.95,-47.33
3595.45,-47.35
3595.95,-47.37
3596.45,-47.39
3596.95,-47.41
3597.45,-47.43
3597.95,-47.46
3598.45,-47.48
3598.95,-47.50
3599.45,-47.52
3599.95,-47.54
3600.45,-47.56
3600.95,-47.59
3601.45,-47.61
3601.95,-47.63
3602.45,-47.65
3602.95,-47.67
3603.45,-47.69
3603.95,-47.71
3604.45,-47.74
3604.95,-47.76
3605.45,-47.78
3605.95,-47.80
3606.45,-47.82
3606.95,-47.85
3607.45,-47.87
3607.95,-47.89
3608.45,-47.91
3608.95,-47.93
3609.45,-47.96
3609.95,-47.98
3610.45,-48.00
3610.95,-48.02
3611.45,-48.04
3611.95,-48.07
3612.45,-48.09
3612.95,-48.11
3613.45,-48.13
3613.95,-48.16
3614.45,-48.18
3614.95,-48.20
3615.45,-48.22
3615.95,-48.24
3616.45,-48.27
3616.95,-48.29
3617.45,-48.31
3617.95,-48.33
3618.45,-48.36
3618.95,-48.38
3619.45,-48.40
3619.95,-48.42
3620.45,-48.45
3620.95,-48.47
3621.45,-48.49
3621.95,-48.52
3622.45,-48.54
3622.95,-48.56
3623.45,-48.58
3623.95,-48.61
3624.45,-48.63
3624.95,-48.65
3625.45,-48.68
3625.95,-48.70
3626.45,-48.72
3626.95,-48.75
3627.45,-48.77
3627.95,-48.79
3628.45,-48.81
3628.95,-48.84
3629.45,-48.86
3629.95,-48.88
3630.45,-48.91
3630.95,-48.93
3631.45,-48.95
3631.95,-48.98
3632.45,-49.00
3632.95,-49.02
3633.45,-49.05
3633.95,-49.07
3634.45,-49.10
3634.95,-49.12
3635.45,-49.14
3635.95,-49.17
3636.45,-49.19
3636.95,-49.21
3637.45,-49.24
3637.95,-49.26
3638.45,-49.28
3638.95,-49.31
3639.45,-49.33
3639.95,-49.36
3640.46,-49.38
3640.96,-49.40
3641.46,-49.43
3641.96,-49.45
3642.46,-49.48
3642.96,-49.50
3643.46,-49.52
3643.96,-49.55
3644.46,-49.57
3644.96,-49.60
3645.46,-49.62
3645.96,-49.65
3646.46,-49.67
3646.96,-49.70
3647.46,-49.72
3647.96,-49.74
3648.46,-49.77
3648.96,-49.79
3649.46,-49.82
3649.96,-49.84
3650.46,-49.87
3650.96,-49.89
3651.46,-49.92
3651.96,-49.94
3652.46,-49.97
3652.96,-49.99
3653.46,-50.02
3653.96,-50.04
3654.46,-50.07
3654.96,-50.09
3655.46,-50.12
3655.96,-50.14
3656.46,-50.17
3656.96,-50.19
3657.46,-50.22
3657.96,-50.24
3658.46,-50.27
3658.96,-50.29
3659.46,-50.32
3659.96,-50.34
3660.46,-50.37
3660.96,-50.39
3661.46,-50.42
3661.96,-50.44
3662.46,-50.47
3662.96,-50.50
3663.46,-50.52
3663.96,-50.55
3664.46,-50.57
3664.96,-50.60
3665.46,-50.62
3665.96,-50.65
3666.46,-50.68
3666.96,-50.70
3667.46,-50.73
3667.96,-50.75
3668.46,-50.78
3668.96,-50.81
3669.46,-50.83
3669.96,-50.86
3670.46,-50.88
3670.96,-50.91
3671.46,-50.94
3671.96,-50.96
3672.46,-50.99
3672.96,-51.02
3673.46,-51.04
3673.96,-51.07
3674.46,-51.09
3674.96,-51.12
3675.46,-51.15
3675.96,-51.17
3676.46,-51.20
3676.96,-51.23
3677.46,-51.25
3677.96,-51.28
3678.46,-51.31
3678.96,-51.33
3679.46,-51.36
3679.96,-51.39
3680.46,-51.42
3680.96,-51.44
3681.46,-51.47
3681.96,-51.50
3682.46,-51.52
3682.96,-51.55
3683.46,-51.58
3683.96,-51.61
3684.46,-51.63
3684.96,-51.66
3685.46,-51.69
3685.96,-51.72
3686.46,-51.74
3686.96,-51.77
3687.46,-51.80
3687.96,-51.83
3688.46,-51.85
3688.96,-51.88
3689.46,-51.91
3689.96,-51.94
3690.46,-51.97
3690.96,-51.99
3691.46,-52.02
3691.96,-52.05
3692.46,-52.08
3692.96,-52.11
3693.46,-52.13
3693.96,-52.16
3694.46,-52.19
3694.96,-52.22
3695.46,-52.25
3695.96,-52.27
3696.46,-52.30
3696.96,-52.33
3697.46,-52.36
3697.96,-52.39
3698.46,-52.42
3698.96,-52.45
3699.46,-52.48
3699.96,-52.50
3700.46,-52.53
3700.96,-52.56
3701.46,-52.59
3701.96,-52.62
3702.46,-52.65
3702.96,-52.68
3703.46,-52.71
3703.96,-52.74
3704.46,-52.77
3704.96,-52.79
3705.46,-52.82
3705.96,-52.85
3706.46,-52.88
3706.96,-52.91
3707.46,-52.94
3707.96,-52.97
3708.46,-53.00
3708.96,-53.03
3709.46,-53.06
3709.96,-53.09
3710.46,-53.12
3710.96,-53.15
3711.46,-53.18
3711.96,-53.21
3712.46,-53.24
3712.96,-53.27
3713.46,-53.30
3713.96,-53.33
3714.46,-53.36
3714.96,-53.39
3715.46,-53.42
3715.96,-53.45
3716.46,-53.48
3716.96,-53.51
3717.46,-53.54
3717.96,-53.57
3718.46,-53.60
3718.96,-53.64
3719.46,-53.67
3719.96,-53.70
3720.47,-53.73
3720.97,-53.76
3721.47,-53.79
3721.97,-53.82
3722.47,-53.85
3722.97,-53.88
3723.47,-53.91
3723.97,-53.95
3724.47,-53.98
3724.97,-54.01
3725.47,-54.04
3725.97,-54.07
3726.47,-54.10
3726.97,-54.13
3727.47,-54.17
3727.97,-54.20
3728.47,-54.23
3728.97,-54.26
3729.47,-54.29
3729.97,-54.33
3730.47,-54.36
3730.97,-54.39
3731.47,-54.42
3731.97,-54.45
3732.47,-54.49
3732.97,-54.52
3733.47,-54.55
3733.97,-54.58
3734.47,-54.62
3734.97,-54.65
3735.47,-54.68
3735.97,-54.71
3736.47,-54.75
3736.97,-54.78
3737.47,-54.81
3737.97,-54.85
3738.47,-54.88
3738.97,-54.91
3739.47,-54.95
3739.97,-54.98
3740.47,-55.01
3740.97,-55.05
3741.47,-55.08
3741.97,-55.11
3742.47,-55.15
3742.97,-55.18
3743.47,-55.21
3743.97,-55.25
3744.47,-55.28
3744.97,-55.31
3745.47,-55.35
3745.97,-55.38
3746.47,-55.42
3746.97,-55.45
3747.47,-55.49
3747.97,-55.52
3748.47,-55.55
3748.97,-55.59
3749.47,-55.62
3749.97,-55.66
3750.47,-55.69
3750.97,-55.73
3751.47,-55.76
3751.97,-55.80
3752.47,-55.83
3752.97,-55.87
3753.47,-55.90
3753.97,-55.94
3754.47,-55.97
3754.97,-56.01
3755.47,-56.04
3755.97,-56.08
3756.47,-56.11
3756.97,-56.15
3757.47,-56.19
3757.97,-56.22
3758.47,-56.26
3758.97,-56.29
3759.47,-56.33
3759.97,-56.36
3760.47,-56.40
3760.97,-56.44
3761.47,-56.47
3761.97,-56.51
3762.47,-56.55
3762.97,-56.58
3763.47,-56.62
3763.97,-56.66
3764.47,-56.69
3764.97,-56.73
3765.47,-56.77
3765.97,-56.80
3766.47,-56.84
3766.97,-56.88
3767.47,-56.91
3767.97,-56.95
3768.47,-56.99
3768.97,-57.03
3769.47,-57.06
3769.97,-57.10
3770.47,-57.14
3770.97,-57.18
3771.47,-57.22
3771.97,-57.25
3772.47,-57.29
3772.97,-57.33
3773.47,-57.37
3773.97,-57.41
3774.47,-57.44
3774.97,-57.48
3775.47,-57.52
3775.97,-57.56
3776.47,-57.60
3776.97,-57.64
3777.47,-57.68
3777.97,-57.71
3778.47,-57.75
3778.97,-57.79
3779.47,-57.83
3779.97,-57.87
3780.47,-57.91
3780.97,-57.95
3781.47,-57.99
3781.97,-58.03
3782.47,-58.07
3782.97,-58.11
3783.47,-58.15
3783.97,-58.19
3784.47,-58.23
3784.97,-58.27
3785.47,-58.31
3785.97,-58.35
3786.47,-58.39
3786.97,-58.43
3787.47,-58.47
3787.97,-58.51
3788.47,-58.55
3788.97,-58.60
3789.47,-58.64
3789.97,-58.68
3790.47,-58.72
3790.97,-58.76
3791.47,-58.80
3791.97,-58.84
3792.47,-58.89
3792.97,-58.93
3793.47,-58.97
3793.97,-59.01
3794.47,-59.05
3794.97,-59.10
3795.47,-59.14
3795.97,-59.18
3796.47,-59.22
3796.97,-59.27
3797.47,-59.31
3797.97,-59.35
3798.47,-59.39
3798.97,-59.44
3799.47,-59.48
3799.97,-59.52
3800.48,-59.57
3800.98,-59.61
3801.48,-59.65
3801.98,-59.70
3802.48,-59.74
3802.98,-59.79
3803.48,-59.83
3803.98,-59.87
3804.48,-59.92
3804.98,-59.96
3805.48,-60.01
3805.98,-60.05
3806.48,-60.10
3806.98,-60.14
3807.48,-60.19
3807.98,-60.23
3808.48,-60.28
3808.98,-60.32
3809.48,-60.37
3809.98,-60.41
3810.48,-60.46
3810.98,-60.50
3811.48,-60.55
3811.98,-60.60
3812.48,-60.64
3812.98,-60.69
3813.48,-60.74
3813.98,-60.78
3814.48,-60.83
3814.98,-60.88
3815.48,-60.92
3815.98,-60.97
3816.48,-61.02
3816.98,-61.06
3817.48,-61.11
3817.98,-61.16
3818.48,-61.21
3818.98,-61.25
3819.48,-61.30
3819.98,-61.35
3820.48,-61.40
3820.98,-61.45
3821.48,-61.50
3821.98,-61.54
3822.48,-61.59
3822.98,-61.64
3823.48,-61.69
3823.98,-61.74
3824.48,-61.79
3824.98,-61.84
3825.48,-61.89
3825.98,-61.94
3826.48,-61.99
3826.98,-62.04
3827.48,-62.09
3827.98,-62.14
3828.48,-62.19
3828.98,-62.24
3829.48,-62.29
3829.98,-62.34
3830.48,-62.39
3830.98,-62.44
3831.48,-62.50
3831.98,-62.55
3832.48,-62.60
3832.98,-62.65
3833.48,-62.70
3833.98,-62.75
3834.48,-62.81
3834.98,-62.86
3835.48,-62.91
3835.98,-62.96
3836.48,-63.02
3836.98,-63.07
3837.48,-63.12
3837.98,-63.18
3838.48,-63.23
3838.98,-63.29
3839.48,-63.34
3839.98,-63.39
3840.48,-63.45
3840.98,-63.50
3841.48,-63.56
3841.98,-63.61
3842.48,-63.67
3842.98,-63.72
3843.48,-63.78
3843.98,-63.83
3844.48,-63.89
3844.98,-63.94
3845.48,-64.00
3845.98,-64.06
3846.48,-64.11
3846.98,-64.17
3847.48,-64.23
3847.98,-64.28
3848.48,-64.34
3848.98,-64.40
3849.48,-64.46
3849.98,-64.51
3850.48,-64.57
3850.98,-64.63
3851.48,-64.69
3851.98,-64.75
3852.48,-64.80
3852.98,-64.86
3853.48,-64.92
3853.98,-64.98
3854.48,-65.04
3854.98,-65.10
3855.48,-65.16
3855.98,-65.22
3856.48,-65.28
3856.98,-65.34
3857.48,-65.40
3857.98,-65.46
3858.48,-65.53
3858.98,-65.59
3859.48,-65.65
3859.98,-65.71
3860.48,-65.77
3860.98,-65.83
3861.48,-65.90
3861.98,-65.96
3862.48,-66.02
3862.98,-66.09
3863.48,-66.15
3863.98,-66.21
3864.48,-66.28
3864.98,-66.34
3865.48,-66.41
3865.98,-66.47
3866.48,-66.54
3866.98,-66.60
3867.48,-66.67
3867.98,-66.73
3868.48,-66.80
3868.98,-66.86
3869.48,-66.93
3869.98,-67.00
3870.48,-67.06
3870.98,-67.13
3871.48,-67.20
3871.98,-67.27
3872.48,-67.33
3872.98,-67.40
3873.48,-67.47
3873.98,-67.54
3874.48,-67.61
3874.98,-67.68
3875.48,-67.75
3875.98,-67.82
3876.48,-67.89
3876.98,-67.96
3877.48,-68.03
3877.98,-68.10
3878.48,-68.17
3878.98,-68.24
3879.48,-68.31
3879.98,-68.39
3880.49,-68.46
3880.99,-68.53
3881.49,-68.60
3881.99,-68.68
3882.49,-68.75
3882.99,-68.83
3883.49,-68.90
3883.99,-68.97
3884.49,-69.05
3884.99,-69.12
3885.49,-69.20
3885.99,-69.28
3886.49,-69.35
3886.99,-69.43
3887.49,-69.51
3887.99,-69.58
3888.49,-69.66
3888.99,-69.74
3889.49,-69.82
3889.99,-69.90
3890.49,-69.98
3890.99,-70.05
3891.49,-70.13
3891.99,-70.21
3892.49,-70.30
3892.99,-70.38
3893.49,-70.46
3893.99,-70.54
3894.49,-70.62
3894.99,-70.70
3895.49,-70.79
3895.99,-70.87
3896.49,-70.95
3896.99,-71.04
3897.49,-71.12
3897.99,-71.21
3898.49,-71.29
3898.99,-71.38
3899.49,-71.46
3899.99,-71.55
3900.49,-71.64
3900.99,-71.73
3901.49,-71.81
3901.99,-71.90
3902.49,-71.99
3902.99,-72.08
3903.49,-72.17
3903.99,-72.26
3904.49,-72.35
3904.99,-72.44
3905.49,-72.53
3905.99,-72.63
3906.49,-72.72
3906.99,-72.81
3907.49,-72.90
3907.99,-73.00
3908.49,-73.09
3908.99,-73.19
3909.49,-73.28
3909.99,-73.38
3910.49,-73.48
3910.99,-73.57
3911.49,-73.67
3911.99,-73.77
3912.49,-73.87
3912.99,-73.97
3913.49,-74.07
3913.99,-74.17
3914.49,-74.27
3914.99,-74.37
3915.49,-74.48
3915.99,-74.58
3916.49,-74.68
3916.99,-74.79
3917.49,-74.89
3917.99,-75.00
3918.49,-75.10
3918.99,-75.21
3919.49,-75.32
3919.99,-75.43
3920.49,-75.53
3920.99,-75.64
3921.49,-75.75
3921.99,-75.87
3922.49,-75.98
3922.99,-76.09
3923.49,-76.20
3923.99,-76.32
3924.49,-76.43
3924.99,-76.55
3925.49,-76.66
3925.99,-76.78
3926.49,-76.90
3926.99,-77.02
3927.49,-77.14
3927.99,-77.26
3928.49,-77.38
3928.99,-77.50
3929.49,-77.62
3929.99,-77.74
3930.49,-77.87
3930.99,-77.99
3931.49,-78.12
3931.99,-78.25
3932.49,-78.38
3932.99,-78.51
3933.49,-78.64
3933.99,-78.77
3934.49,-78.90
3934.99,-79.03
3935.49,-79.17
3935.99,-79.30
3936.49,-79.44
3936.99,-79.57
3937.49,-79.71
3937.99,-79.85
3938.49,-79.99
3938.99,-80.13
3939.49,-80.28
3939.99,-80.42
3940.49,-80.57
3940.99,-80.71
3941.49,-80.86
3941.99,-81.01
3942.49,-81.16
3942.99,-81.31
3943.49,-81.47
3943.99,-81.62
3944.49,-81.78
3944.99,-81.93
3945.49,-82.09
3945.99,-82.25
3946.49,-82.41
3946.99,-82.58
3947.49,-82.74
3947.99,-82.91
3948.49,-83.08
3948.99,-83.24
3949.49,-83.42
3949.99,-83.59
3950.49,-83.76
3950.99,-83.94
3951.49,-84.12
3951.99,-84.30
3952.49,-84.48
3952.99,-84.66
3953.49,-84.85
3953.99,-85.04
3954.49,-85.23
3954.99,-85.42
3955.49,-85.61
3955.99,-85.81
3956.49,-86.01
3956.99,-86.21
3957.49,-86.41
3957.99,-86.62
3958.49,-86.83
3958.99,-87.04
3959.49,-87.25
3959.99,-87.46
3960.50,-87.68
3961.00,-87.90
3961.50,-88.13
3962.00,-88.36
3962.50,-88.59
3963.00,-88.82
3963.50,-89.06
3964.00,-89.29
3964.50,-89.54
3965.00,-89.78
3965.50,-90.03
3966.00,-90.29
3966.50,-90.55
3967.00,-90.81
3967.50,-91.07
3968.00,-91.34
3968.50,-91.61
3969.00,-91.89
3969.50,-92.17
3970.00,-92.46
3970.50,-92.75
3971.00,-93.05
3971.50,-93.35
3972.00,-93.66
3972.50,-93.97
3973.00,-94.29
3973.50,-94.62
3974.00,-94.95
3974.50,-95.29
3975.00,-95.63
3975.50,-95.98
3976.00,-96.34
3976.50,-96.70
3977.00,-97.08
3977.50,-97.46
3978.00,-97.85
3978.50,-98.25
3979.00,-98.66
3979.50,-99.08
3980.00,-99.51
3980.50,-99.95
3981.00,-100.40
3981.50,-100.86
3982.00,-101.34
3982.50,-101.83
3983.00,-102.33
3983.50,-102.85
3984.00,-103.38
3984.50,-103.93
3985.00,-104.50
3985.50,-105.09
3986.00,-105.70
3986.50,-106.33
3987.00,-106.99
3987.50,-107.67
3988.00,-108.38
3988.50,-109.12
3989.00,-109.89
3989.50,-110.70
3990.00,-111.55
3990.50,-112.44
3991.00,-113.38
3991.50,-114.37
3992.00,-115.42
3992.50,-116.54
3993.00,-117.74
3993.50,-119.03
3994.00,-120.42
3994.50,-121.93
3995.00,-123.59
3995.50,-125.42
3996.00,-127.46
3996.50,-129.78
3997.00,-132.46
3997.50,-135.63
3998.00,-139.51
3998.50,-144.50
3999.00,-151.55
3999.50,-163.59
4000.00,-inf
