Frequency(Hz),Magnitude(dB)
0.00,0.00
0.50,-0.00
1.00,-0.00
1.50,-0.00
2.00,-0.00
2.50,-0.00
3.00,-0.00
3.50,-0.00
4.00,-0.00
4.50,-0.00
5.00,-0.00
5.50,-0.00
6.00,-0.00
6.50,-0.00
7.00,-0.00
7.50,-0.00
8.00,-0.00
8.50,-0.00
9.00,-0.00
9.50,-0.00
10.00,-0.00
10.50,-0.00
11.00,-0.00
11.50,-0.00
12.00,-0.00
12.50,-0.00
13.00,-0.00
13.50,-0.00
14.00,-0.00
14.50,-0.00
15.00,-0.00
15.50,-0.00
16.00,-0.00
16.50,-0.00
17.00,-0.00
17.50,-0.00
18.00,-0.00
18.50,-0.00
19.00,-0.00
19.50,-0.00
20.00,-0.00
20.50,-0.00
21.00,-0.00
21.50,-0.00
22.00,-0.00
22.50,-0.00
23.00,-0.00
23.50,-0.00
24.00,-0.00
24.50,-0.00
25.00,-0.00
25.50,-0.00
26.00,-0.00
26.50,-0.00
27.00,-0.00
27.50,-0.00
28.00,-0.00
28.50,-0.00
29.00,-0.00
29.50,-0.00
30.00,-0.00
30.50,-0.00
31.00,-0.00
31.50,-0.00
32.00,-0.00
32.50,-0.00
33.00,-0.00
33.50,-0.00
34.00,-0.00
34.50,-0.00
35.00,-0.00
35.50,-0.00
36.00,-0.00
36.50,-0.00
37.00,-0.00
37.50,-0.00
38.00,-0.00
38.50,-0.01
39.00,-0.01
39.50,-0.01
40.01,-0.01
40.51,-0.01
41.01,-0.01
41.51,-0.01
42.01,-0.01
42.51,-0.01
43.01,-0.01
43.51,-0.01
44.01,-0.01
44.51,-0.01
45.01,-0.01
45.51,-0.01
46.01,-0.01
46.51,-0.01
47.01,-0.01
47.51,-0.01
48.01,-0.01
48.51,-0.01
49.01,-0.01
49.51,-0.01
50.01,-0.01
50.51,-0.01
51.01,-0.01
51.51,-0.01
52.01,-0.01
52.51,-0.01
53.01,-0.01
53.51,-0.01
54.01,-0.01
54.51,-0.01
55.01,-0.01
55.51,-0.01
56.01,-0.01
56.51,-0.01
57.01,-0.01
57.51,-0.01
58.01,-0.01
58.51,-0.01
59.01,-0.01
59.51,-0.01
60.01,-0.01
60.51,-0.01
61.01,-0.01
61.51,-0.01
62.01,-0.01
62.51,-0.01
63.01,-0.01
63.51,-0.01
64.01,-0.01
64.51,-0.01
65.01,-0.01
65.51,-0.01
66.01,-0.01
66.51,-0.02
67.01,-0.02
67.51,-0.02
68.01,-0.02
68.51,-0.02
69.01,-0.02
69.51,-0.02
70.01,-0.02
70.51,-0.02
71.01,-0.02
71.51,-0.02
72.01,-0.02
72.51,-0.02
73.01,-0.02
73.51,-0.02
74.01,-0.02
74.51,-0.02
75.01,-0.02
75.51,-0.02
76.01,-0.02
76.51,-0.02
77.01,-0.02
77.51,-0.02
78.01,-0.02
78.51,-0.02
79.01,-0.02
79.51,-0.02
80.01,-0.02
80.51,-0.02
81.01,-0.02
81.51,-0.02
82.01,-0.02
82.51,-0.02
83.01,-0.02
83.51,-0.02
84.01,-0.02
84.51,-0.02
85.01,-0.02
85.51,-0.02
86.01,-0.03
86.51,-0.03
87.01,-0.03
87.51,-0.03
88.01,-0.03
88.51,-0.03
89.01,-0.03
89.51,-0.03
90.01,-0.03
90.51,-0.03
91.01,-0.03
91.51,-0.03
92.01,-0.03
92.51,-0.03
93.01,-0.03
93.51,-0.03
94.01,-0.03
94.51,-0.03
95.01,-0.03
95.51,-0.03
96.01,-0.03
96.51,-0.03
97.01,-0.03
97.51,-0.03
98.01,-0.03
98.51,-0.03
99.01,-0.03
99.51,-0.03
100.01,-0.03
100.51,-0.03
101.01,-0.03
101.51,-0.04
102.01,-0.04
102.51,-0.04
103.01,-0.04
103.51,-0.04
104.01,-0.04
104.51,-0.04
105.01,-0.04
105.51,-0.04
106.01,-0.04
106.51,-0.04
107.01,-0.04
107.51,-0.04
108.01,-0.04
108.51,-0.04
109.01,-0.04
109.51,-0.04
110.01,-0.04
110.51,-0.04
111.01,-0.04
111.51,-0.04
112.01,-0.04
112.51,-0.04
113.01,-0.04
113.51,-0.04
114.01,-0.04
114.51,-0.04
115.01,-0.05
115.51,-0.05
116.01,-0.05
116.51,-0.05
117.01,-0.05
117.51,-0.05
118.01,-0.05
118.51,-0.05
119.01,-0.05
119.51,-0.05
120.02,-0.05
120.52,-0.05
121.02,-0.05
121.52,-0.05
122.02,-0.05
122.52,-0.05
123.02,-0.05
123.52,-0.05
124.02,-0.05
124.52,-0.05
125.02,-0.05
125.52,-0.05
126.02,-0.05
126.52,-0.05
127.02,-0.05
127.52,-0.06
128.02,-0.06
128.52,-0.06
129.02,-0.06
129.52,-0.06
130.02,-0.06
130.52,-0.06
131.02,-0.06
131.52,-0.06
132.02,-0.06
132.52,-0.06
133.02,-0.06
133.52,-0.06
134.02,-0.06
134.52,-0.06
135.02,-0.06
135.52,-0.06
136.02,-0.06
136.52,-0.06
137.02,-0.06
137.52,-0.06
138.02,-0.06
138.52,-0.07
139.02,-0.07
139.52,-0.07
140.02,-0.07
140.52,-0.07
141.02,-0.07
141.52,-0.07
142.02,-0.07
142.52,-0.07
143.02,-0.07
143.52,-0.07
144.02,-0.07
144.52,-0.07
145.02,-0.07
145.52,-0.07
146.02,-0.07
146.52,-0.07
147.02,-0.07
147.52,-0.07
148.02,-0.07
148.52,-0.08
149.02,-0.08
149.52,-0.08
150.02,-0.08
150.52,-0.08
151.02,-0.08
151.52,-0.08
152.02,-0.08
152.52,-0.08
153.02,-0.08
153.52,-0.08
154.02,-0.08
154.52,-0.08
155.02,-0.08
155.52,-0.08
156.02,-0.08
156.52,-0.08
157.02,-0.08
157.52,-0.08
158.02,-0.08
158.52,-0.09
159.02,-0.09
159.52,-0.09
160.02,-0.09
160.52,-0.09
161.02,-0.09
161.52,-0.09
162.02,-0.09
162.52,-0.09
163.02,-0.09
163.52,-0.09
164.02,-0.09
164.52,-0.09
165.02,-0.09
165.52,-0.09
166.02,-0.09
166.52,-0.09
167.02,-0.09
167.52,-0.10
168.02,-0.10
168.52,-0.10
169.02,-0.10
169.52,-0.10
170.02,-0.10
170.52,-0.10
171.02,-0.10
171.52,-0.10
172.02,-0.10
172.52,-0.10
173.02,-0.10
173.52,-0.10
174.02,-0.10
174.52,-0.10
175.02,-0.10
175.52,-0.10
176.02,-0.11
176.52,-0.11
177.02,-0.11
177.52,-0.11
178.02,-0.11
178.52,-0.11
179.02,-0.11
179.52,-0.11
180.02,-0.11
180.52,-0.11
181.02,-0.11
181.52,-0.11
182.02,-0.11
182.52,-0.11
183.02,-0.11
183.52,-0.11
184.02,-0.12
184.52,-0.12
185.02,-0.12
185.52,-0.12
186.02,-0.12
186.52,-0.12
187.02,-0.12
187.52,-0.12
188.02,-0.12
188.52,-0.12
189.02,-0.12
189.52,-0.12
190.02,-0.12
190.52,-0.12
191.02,-0.12
191.52,-0.12
192.02,-0.13
192.52,-0.13
193.02,-0.13
193.52,-0.13
194.02,-0.13
194.52,-0.13
195.02,-0.13
195.52,-0.13
196.02,-0.13
196.52,-0.13
197.02,-0.13
197.52,-0.13
198.02,-0.13
198.52,-0.13
199.02,-0.13
199.52,-0.14
200.03,-0.14
200.53,-0.14
201.03,-0.14
201.53,-0.14
202.03,-0.14
202.53,-0.14
203.03,-0.14
203.53,-0.14
204.03,-0.14
204.53,-0.14
205.03,-0.14
205.53,-0.14
206.03,-0.14
206.53,-0.14
207.03,-0.15
207.53,-0.15
208.03,-0.15
208.53,-0.15
209.03,-0.15
209.53,-0.15
210.03,-0.15
210.53,-0.15
211.03,-0.15
211.53,-0.15
212.03,-0.15
212.53,-0.15
213.03,-0.15
213.53,-0.15
214.03,-0.16
214.53,-0.16
215.03,-0.16
215.53,-0.16
216.03,-0.16
216.53,-0.16
217.03,-0.16
217.53,-0.16
218.03,-0.16
218.53,-0.16
219.03,-0.16
219.53,-0.16
220.03,-0.16
220.53,-0.17
221.03,-0.17
221.53,-0.17
222.03,-0.17
222.53,-0.17
223.03,-0.17
223.53,-0.17
224.03,-0.17
224.53,-0.17
225.03,-0.17
225.53,-0.17
226.03,-0.17
226.53,-0.17
227.03,-0.17
227.53,-0.18
228.03,-0.18
228.53,-0.18
229.03,-0.18
229.53,-0.18
230.03,-0.18
230.53,-0.18
231.03,-0.18
231.53,-0.18
232.03,-0.18
232.53,-0.18
233.03,-0.18
233.53,-0.19
234.03,-0.19
234.53,-0.19
235.03,-0.19
235.53,-0.19
236.03,-0.19
236.53,-0.19
237.03,-0.19
237.53,-0.19
238.03,-0.19
238.53,-0.19
239.03,-0.19
239.53,-0.19
240.03,-0.20
240.53,-0.20
241.03,-0.20
241.53,-0.20
242.03,-0.20
242.53,-0.20
243.03,-0.20
243.53,-0.20
244.03,-0.20
244.53,-0.20
245.03,-0.20
245.53,-0.20
246.03,-0.21
246.53,-0.21
247.03,-0.21
247.53,-0.21
248.03,-0.21
248.53,-0.21
249.03,-0.21
249.53,-0.21
250.03,-0.21
250.53,-0.21
251.03,-0.21
251.53,-0.21
252.03,-0.22
252.53,-0.22
253.03,-0.22
253.53,-0.22
254.03,-0.22
254.53,-0.22
255.03,-0.22
255.53,-0.22
256.03,-0.22
256.53,-0.22
257.03,-0.22
257.53,-0.22
258.03,-0.23
258.53,-0.23
259.03,-0.23
259.53,-0.23
260.03,-0.23
260.53,-0.23
261.03,-0.23
261.53,-0.23
262.03,-0.23
262.53,-0.23
263.03,-0.23
263.53,-0.24
264.03,-0.24
264.53,-0.24
265.03,-0.24
265.53,-0.24
266.03,-0.24
266.53,-0.24
267.03,-0.24
267.53,-0.24
268.03,-0.24
268.53,-0.24
269.03,-0.25
269.53,-0.25
270.03,-0.25
270.53,-0.25
271.03,-0.25
271.53,-0.25
272.03,-0.25
272.53,-0.25
273.03,-0.25
273.53,-0.25
274.03,-0.25
274.53,-0.26
275.03,-0.26
275.53,-0.26
276.03,-0.26
276.53,-0.26
277.03,-0.26
277.53,-0.26
278.03,-0.26
278.53,-0.26
279.03,-0.26
279.53,-0.26
280.04,-0.27
280.54,-0.27
281.04,-0.27
281.54,-0.27
282.04,-0.27
282.54,-0.27
283.04,-0.27
283.54,-0.27
284.04,-0.27
284.54,-0.27
285.04,-0.28
285.54,-0.28
286.04,-0.28
286.54,-0.28
287.04,-0.28
287.54,-0.28
288.04,-0.28
288.54,-0.28
289.04,-0.28
289.54,-0.28
290.04,-0.28
290.54,-0.29
291.04,-0.29
291.54,-0.29
292.04,-0.29
292.54,-0.29
293.04,-0.29
293.54,-0.29
294.04,-0.29
294.54,-0.29
295.04,-0.29
295.54,-0.30
296.04,-0.30
296.54,-0.30
297.04,-0.30
297.54,-0.30
298.04,-0.30
298.54,-0.30
299.04,-0.30
299.54,-0.30
300.04,-0.30
300.54,-0.31
301.04,-0.31
301.54,-0.31
302.04,-0.31
302.54,-0.31
303.04,-0.31
303.54,-0.31
304.04,-0.31
304.54,-0.31
305.04,-0.31
305.54,-0.32
306.04,-0.32
306.54,-0.32
307.04,-0.32
307.54,-0.32
308.04,-0.32
308.54,-0.32
309.04,-0.32
309.54,-0.32
310.04,-0.32
310.54,-0.33
311.04,-0.33
311.54,-0.33
312.04,-0.33
312.54,-0.33
313.04,-0.33
313.54,-0.33
314.04,-0.33
314.54,-0.33
315.04,-0.34
315.54,-0.34
316.04,-0.34
316.54,-0.34
317.04,-0.34
317.54,-0.34
318.04,-0.34
318.54,-0.34
319.04,-0.34
319.54,-0.35
320.04,-0.35
320.54,-0.35
321.04,-0.35
321.54,-0.35
322.04,-0.35
322.54,-0.35
323.04,-0.35
323.54,-0.35
324.04,-0.35
324.54,-0.36
325.04,-0.36
325.54,-0.36
326.04,-0.36
326.54,-0.36
327.04,-0.36
327.54,-0.36
328.04,-0.36
328.54,-0.36
329.04,-0.37
329.54,-0.37
330.04,-0.37
330.54,-0.37
331.04,-0.37
331.54,-0.37
332.04,-0.37
332.54,-0.37
333.04,-0.37
333.54,-0.38
334.04,-0.38
334.54,-0.38
335.04,-0.38
335.54,-0.38
336.04,-0.38
336.54,-0.38
337.04,-0.38
337.54,-0.38
338.04,-0.39
338.54,-0.39
339.04,-0.39
339.54,-0.39
340.04,-0.39
340.54,-0.39
341.04,-0.39
341.54,-0.39
342.04,-0.39
342.54,-0.40
343.04,-0.40
343.54,-0.40
344.04,-0.40
344.54,-0.40
345.04,-0.40
345.54,-0.40
346.04,-0.40
346.54,-0.41
347.04,-0.41
347.54,-0.41
348.04,-0.41
348.54,-0.41
349.04,-0.41
349.54,-0.41
350.04,-0.41
350.54,-0.41
351.04,-0.42
351.54,-0.42
352.04,-0.42
352.54,-0.42
353.04,-0.42
353.54,-0.42
354.04,-0.42
354.54,-0.42
355.04,-0.43
355.54,-0.43
356.04,-0.43
356.54,-0.43
357.04,-0.43
357.54,-0.43
358.04,-0.43
358.54,-0.43
359.04,-0.43
359.54,-0.44
360.05,-0.44
360.55,-0.44
361.05,-0.44
361.55,-0.44
362.05,-0.44
362.55,-0.44
363.05,-0.44
363.55,-0.45
364.05,-0.45
364.55,-0.45
365.05,-0.45
365.55,-0.45
366.05,-0.45
366.55,-0.45
367.05,-0.45
367.55,-0.46
368.05,-0.46
368.55,-0.46
369.05,-0.46
369.55,-0.46
370.05,-0.46
370.55,-0.46
371.05,-0.46
371.55,-0.46
372.05,-0.47
372.55,-0.47
373.05,-0.47
373.55,-0.47
374.05,-0.47
374.55,-0.47
375.05,-0.47
375.55,-0.47
376.05,-0.48
376.55,-0.48
377.05,-0.48
377.55,-0.48
378.05,-0.48
378.55,-0.48
379.05,-0.48
379.55,-0.48
380.05,-0.49
380.55,-0.49
381.05,-0.49
381.55,-0.49
382.05,-0.49
382.55,-0.49
383.05,-0.49
383.55,-0.50
384.05,-0.50
384.55,-0.50
385.05,-0.50
385.55,-0.50
386.05,-0.50
386.55,-0.50
387.05,-0.50
387.55,-0.51
388.05,-0.51
388.55,-0.51
389.05,-0.51
389.55,-0.51
390.05,-0.51
390.55,-0.51
391.05,-0.51
391.55,-0.52
392.05,-0.52
392.55,-0.52
393.05,-0.52
393.55,-0.52
394.05,-0.52
394.55,-0.52
395.05,-0.52
395.55,-0.53
396.05,-0.53
396.55,-0.53
397.05,-0.53
397.55,-0.53
398.05,-0.53
398.55,-0.53
399.05,-0.54
399.55,-0.54
400.05,-0.54
400.55,-0.54
401.05,-0.54
401.55,-0.54
402.05,-0.54
402.55,-0.54
403.05,-0.55
403.55,-0.55
404.05,-0.55
404.55,-0.55
405.05,-0.55
405.55,-0.55
406.05,-0.55
406.55,-0.56
407.05,-0.56
407.55,-0.56
408.05,-0.56
408.55,-0.56
409.05,-0.56
409.55,-0.56
410.05,-0.56
410.55,-0.57
411.05,-0.57
411.55,-0.57
412.05,-0.57
412.55,-0.57
413.05,-0.57
413.55,-0.57
414.05,-0.58
414.55,-0.58
415.05,-0.58
415.55,-0.58
416.05,-0.58
416.55,-0.58
417.05,-0.58
417.55,-0.59
418.05,-0.59
418.55,-0.59
419.05,-0.59
419.55,-0.59
420.05,-0.59
420.55,-0.59
421.05,-0.60
421.55,-0.60
422.05,-0.60
422.55,-0.60
423.05,-0.60
423.55,-0.60
424.05,-0.60
424.55,-0.60
425.05,-0.61
425.55,-0.61
426.05,-0.61
426.55,-0.61
427.05,-0.61
427.55,-0.61
428.05,-0.61
428.55,-0.62
429.05,-0.62
429.55,-0.62
430.05,-0.62
430.55,-0.62
431.05,-0.62
431.55,-0.62
432.05,-0.63
432.55,-0.63
433.05,-0.63
433.55,-0.63
434.05,-0.63
434.55,-0.63
435.05,-0.63
435.55,-0.64
436.05,-0.64
436.55,-0.64
437.05,-0.64
437.55,-0.64
438.05,-0.64
438.55,-0.64
439.05,-0.65
439.55,-0.65
440.06,-0.65
440.56,-0.65
441.06,-0.65
441.56,-0.65
442.06,-0.65
442.56,-0.66
443.06,-0.66
443.56,-0.66
444.06,-0.66
444.56,-0.66
445.06,-0.66
445.56,-0.67
446.06,-0.67
446.56,-0.67
447.06,-0.67
447.56,-0.67
448.06,-0.67
448.56,-0.67
449.06,-0.68
449.56,-0.68
450.06,-0.68
450.56,-0.68
451.06,-0.68
451.56,-0.68
452.06,-0.68
452.56,-0.69
453.06,-0.69
453.56,-0.69
454.06,-0.69
454.56,-0.69
455.06,-0.69
455.56,-0.69
456.06,-0.70
456.56,-0.70
457.06,-0.70
457.56,-0.70
458.06,-0.70
458.56,-0.70
459.06,-0.71
459.56,-0.71
460.06,-0.71
460.56,-0.71
461.06,-0.71
461.56,-0.71
462.06,-0.71
462.56,-0.72
463.06,-0.72
463.56,-0.72
464.06,-0.72
464.56,-0.72
465.06,-0.72
465.56,-0.72
466.06,-0.73
466.56,-0.73
467.06,-0.73
467.56,-0.73
468.06,-0.73
468.56,-0.73
469.06,-0.74
469.56,-0.74
470.06,-0.74
470.56,-0.74
471.06,-0.74
471.56,-0.74
472.06,-0.74
472.56,-0.75
473.06,-0.75
473.56,-0.75
474.06,-0.75
474.56,-0.75
475.06,-0.75
475.56,-0.76
476.06,-0.76
476.56,-0.76
477.06,-0.76
477.56,-0.76
478.06,-0.76
478.56,-0.77
479.06,-0.77
479.56,-0.77
480.06,-0.77
480.56,-0.77
481.06,-0.77
481.56,-0.77
482.06,-0.78
482.56,-0.78
483.06,-0.78
483.56,-0.78
484.06,-0.78
484.56,-0.78
485.06,-0.79
485.56,-0.79
486.06,-0.79
486.56,-0.79
487.06,-0.79
487.56,-0.79
488.06,-0.80
488.56,-0.80
489.06,-0.80
489.56,-0.80
490.06,-0.80
490.56,-0.80
491.06,-0.80
491.56,-0.81
492.06,-0.81
492.56,-0.81
493.06,-0.81
493.56,-0.81
494.06,-0.81
494.56,-0.82
495.06,-0.82
495.56,-0.82
496.06,-0.82
496.56,-0.82
497.06,-0.82
497.56,-0.83
498.06,-0.83
498.56,-0.83
499.06,-0.83
499.56,-0.83
500.06,-0.83
500.56,-0.84
501.06,-0.84
501.56,-0.84
502.06,-0.84
502.56,-0.84
503.06,-0.84
503.56,-0.85
504.06,-0.85
504.56,-0.85
505.06,-0.85
505.56,-0.85
506.06,-0.85
506.56,-0.86
507.06,-0.86
507.56,-0.86
508.06,-0.86
508.56,-0.86
509.06,-0.86
509.56,-0.87
510.06,-0.87
510.56,-0.87
511.06,-0.87
511.56,-0.87
512.06,-0.87
512.56,-0.88
513.06,-0.88
513.56,-0.88
514.06,-0.88
514.56,-0.88
515.06,-0.88
515.56,-0.89
516.06,-0.89
516.56,-0.89
517.06,-0.89
517.56,-0.89
518.06,-0.89
518.56,-0.90
519.06,-0.90
519.56,-0.90
520.07,-0.90
520.57,-0.90
521.07,-0.90
521.57,-0.91
522.07,-0.91
522.57,-0.91
523.07,-0.91
523.57,-0.91
524.07,-0.91
524.57,-0.92
525.07,-0.92
525.57,-0.92
526.07,-0.92
526.57,-0.92
527.07,-0.92
527.57,-0.93
528.07,-0.93
528.57,-0.93
529.07,-0.93
529.57,-0.93
530.07,-0.93
530.57,-0.94
531.07,-0.94
531.57,-0.94
532.07,-0.94
532.57,-0.94
533.07,-0.94
533.57,-0.95
534.07,-0.95
534.57,-0.95
535.07,-0.95
535.57,-0.95
536.07,-0.96
536.57,-0.96
537.07,-0.96
537.57,-0.96
538.07,-0.96
538.57,-0.96
539.07,-0.97
539.57,-0.97
540.07,-0.97
540.57,-0.97
541.07,-0.97
541.57,-0.97
542.07,-0.98
542.57,-0.98
543.07,-0.98
543.57,-0.98
544.07,-0.98
544.57,-0.99
545.07,-0.99
545.57,-0.99
546.07,-0.99
546.57,-0.99
547.07,-0.99
547.57,-1.00
548.07,-1.00
548.57,-1.00
549.07,-1.00
549.57,-1.00
550.07,-1.00
550.57,-1.01
551.07,-1.01
551.57,-1.01
552.07,-1.01
552.57,-1.01
553.07,-1.02
553.57,-1.02
554.07,-1.02
554.57,-1.02
555.07,-1.02
555.57,-1.02
556.07,-1.03
556.57,-1.03
557.07,-1.03
557.57,-1.03
558.07,-1.03
558.57,-1.04
559.07,-1.04
559.57,-1.04
560.07,-1.04
560.57,-1.04
561.07,-1.04
561.57,-1.05
562.07,-1.05
562.57,-1.05
563.07,-1.05
563.57,-1.05
564.07,-1.06
564.57,-1.06
565.07,-1.06
565.57,-1.06
566.07,-1.06
566.57,-1.06
567.07,-1.07
567.57,-1.07
568.07,-1.07
568.57,-1.07
569.07,-1.07
569.57,-1.08
570.07,-1.08
570.57,-1.08
571.07,-1.08
571.57,-1.08
572.07,-1.08
572.57,-1.09
573.07,-1.09
573.57,-1.09
574.07,-1.09
574.57,-1.09
575.07,-1.10
575.57,-1.10
576.07,-1.10
576.57,-1.10
577.07,-1.10
577.57,-1.10
578.07,-1.11
578.57,-1.11
579.07,-1.11
579.57,-1.11
580.07,-1.11
580.57,-1.12
581.07,-1.12
581.57,-1.12
582.07,-1.12
582.57,-1.12
583.07,-1.13
583.57,-1.13
584.07,-1.13
584.57,-1.13
585.07,-1.13
585.57,-1.13
586.07,-1.14
586.57,-1.14
587.07,-1.14
587.57,-1.14
588.07,-1.14
588.57,-1.15
589.07,-1.15
589.57,-1.15
590.07,-1.15
590.57,-1.15
591.07,-1.16
591.57,-1.16
592.07,-1.16
592.57,-1.16
593.07,-1.16
593.57,-1.16
594.07,-1.17
594.57,-1.17
595.07,-1.17
595.57,-1.17
596.07,-1.17
596.57,-1.18
597.07,-1.18
597.57,-1.18
598.07,-1.18
598.57,-1.18
599.07,-1.19
599.57,-1.19
600.08,-1.19
600.58,-1.19
601.08,-1.19
601.58,-1.20
602.08,-1.20
602.58,-1.20
603.08,-1.20
603.58,-1.20
604.08,-1.21
604.58,-1.21
605.08,-1.21
605.58,-1.21
606.08,-1.21
606.58,-1.21
607.08,-1.22
607.58,-1.22
608.08,-1.22
608.58,-1.22
609.08,-1.22
609.58,-1.23
610.08,-1.23
610.58,-1.23
611.08,-1.23
611.58,-1.23
612.08,-1.24
612.58,-1.24
613.08,-1.24
613.58,-1.24
614.08,-1.24
614.58,-1.25
615.08,-1.25
615.58,-1.25
616.08,-1.25
616.58,-1.25
617.08,-1.26
617.58,-1.26
618.08,-1.26
618.58,-1.26
619.08,-1.26
619.58,-1.27
620.08,-1.27
620.58,-1.27
621.08,-1.27
621.58,-1.27
622.08,-1.28
622.58,-1.28
623.08,-1.28
623.58,-1.28
624.08,-1.28
624.58,-1.29
625.08,-1.29
625.58,-1.29
626.08,-1.29
626.58,-1.29
627.08,-1.30
627.58,-1.30
628.08,-1.30
628.58,-1.30
629.08,-1.30
629.58,-1.31
630.08,-1.31
630.58,-1.31
631.08,-1.31
631.58,-1.31
632.08,-1.32
632.58,-1.32
633.08,-1.32
633.58,-1.32
634.08,-1.32
634.58,-1.33
635.08,-1.33
635.58,-1.33
636.08,-1.33
636.58,-1.33
637.08,-1.34
637.58,-1.34
638.08,-1.34
638.58,-1.34
639.08,-1.34
639.58,-1.35
640.08,-1.35
640.58,-1.35
641.08,-1.35
641.58,-1.35
642.08,-1.36
642.58,-1.36
643.08,-1.36
643.58,-1.36
644.08,-1.36
644.58,-1.37
645.08,-1.37
645.58,-1.37
646.08,-1.37
646.58,-1.37
647.08,-1.38
647.58,-1.38
648.08,-1.38
648.58,-1.38
649.08,-1.39
649.58,-1.39
650.08,-1.39
650.58,-1.39
651.08,-1.39
651.58,-1.40
652.08,-1.40
652.58,-1.40
653.08,-1.40
653.58,-1.40
654.08,-1.41
654.58,-1.41
655.08,-1.41
655.58,-1.41
656.08,-1.41
656.58,-1.42
657.08,-1.42
657.58,-1.42
658.08,-1.42
658.58,-1.42
659.08,-1.43
659.58,-1.43
660.08,-1.43
660.58,-1.43
661.08,-1.43
661.58,-1.44
662.08,-1.44
662.58,-1.44
663.08,-1.44
663.58,-1.45
664.08,-1.45
664.58,-1.45
665.08,-1.45
665.58,-1.45
666.08,-1.46
666.58,-1.46
667.08,-1.46
667.58,-1.46
668.08,-1.46
668.58,-1.47
669.08,-1.47
669.58,-1.47
670.08,-1.47
670.58,-1.48
671.08,-1.48
671.58,-1.48
672.08,-1.48
672.58,-1.48
673.08,-1.49
673.58,-1.49
674.08,-1.49
674.58,-1.49
675.08,-1.49
675.58,-1.50
676.08,-1.50
676.58,-1.50
677.08,-1.50
677.58,-1.50
678.08,-1.51
678.58,-1.51
679.08,-1.51
679.58,-1.51
680.09,-1.52
680.59,-1.52
681.09,-1.52
681.59,-1.52
682.09,-1.52
682.59,-1.53
683.09,-1.53
683.59,-1.53
684.09,-1.53
684.59,-1.53
685.09,-1.54
685.59,-1.54
686.09,-1.54
686.59,-1.54
687.09,-1.55
687.59,-1.55
688.09,-1.55
688.59,-1.55
689.09,-1.55
689.59,-1.56
690.09,-1.56
690.59,-1.56
691.09,-1.56
691.59,-1.57
692.09,-1.57
692.59,-1.57
693.09,-1.57
693.59,-1.57
694.09,-1.58
694.59,-1.58
695.09,-1.58
695.59,-1.58
696.09,-1.58
696.59,-1.59
697.09,-1.59
697.59,-1.59
698.09,-1.59
698.59,-1.60
699.09,-1.60
699.59,-1.60
700.09,-1.60
700.59,-1.60
701.09,-1.61
701.59,-1.61
702.09,-1.61
702.59,-1.61
703.09,-1.62
703.59,-1.62
704.09,-1.62
704.59,-1.62
705.09,-1.62
705.59,-1.63
706.09,-1.63
706.59,-1.63
707.09,-1.63
707.59,-1.64
708.09,-1.64
708.59,-1.64
709.09,-1.64
709.59,-1.64
710.09,-1.65
710.59,-1.65
711.09,-1.65
711.59,-1.65
712.09,-1.66
712.59,-1.66
713.09,-1.66
713.59,-1.66
714.09,-1.66
714.59,-1.67
715.09,-1.67
715.59,-1.67
716.09,-1.67
716.59,-1.68
717.09,-1.68
717.59,-1.68
718.09,-1.68
718.59,-1.68
719.09,-1.69
719.59,-1.69
720.09,-1.69
720.59,-1.69
721.09,-1.70
721.59,-1.70
722.09,-1.70
722.59,-1.70
723.09,-1.71
723.59,-1.71
724.09,-1.71
724.59,-1.71
725.09,-1.71
725.59,-1.72
726.09,-1.72
726.59,-1.72
727.09,-1.72
727.59,-1.73
728.09,-1.73
728.59,-1.73
729.09,-1.73
729.59,-1.73
730.09,-1.74
730.59,-1.74
731.09,-1.74
731.59,-1.74
732.09,-1.75
732.59,-1.75
733.09,-1.75
733.59,-1.75
734.09,-1.76
734.59,-1.76
735.09,-1.76
735.59,-1.76
736.09,-1.76
736.59,-1.77
737.09,-1.77
737.59,-1.77
738.09,-1.77
738.59,-1.78
739.09,-1.78
739.59,-1.78
740.09,-1.78
740.59,-1.78
741.09,-1.79
741.59,-1.79
742.09,-1.79
742.59,-1.79
743.09,-1.80
743.59,-1.80
744.09,-1.80
744.59,-1.80
745.09,-1.81
745.59,-1.81
746.09,-1.81
746.59,-1.81
747.09,-1.82
747.59,-1.82
748.09,-1.82
748.59,-1.82
749.09,-1.82
749.59,-1.83
750.09,-1.83
750.59,-1.83
751.09,-1.83
751.59,-1.84
752.09,-1.84
752.59,-1.84
753.09,-1.84
753.59,-1.85
754.09,-1.85
754.59,-1.85
755.09,-1.85
755.59,-1.85
756.09,-1.86
756.59,-1.86
757.09,-1.86
757.59,-1.86
758.09,-1.87
758.59,-1.87
759.09,-1.87
759.59,-1.87
760.10,-1.88
760.60,-1.88
761.10,-1.88
761.60,-1.88
762.10,-1.89
762.60,-1.89
763.10,-1.89
763.60,-1.89
764.10,-1.89
764.60,-1.90
765.10,-1.90
765.60,-1.90
766.10,-1.90
766.60,-1.91
767.10,-1.91
767.60,-1.91
768.10,-1.91
768.60,-1.92
769.10,-1.92
769.60,-1.92
770.10,-1.92
770.60,-1.93
771.10,-1.93
771.60,-1.93
772.10,-1.93
772.60,-1.94
773.10,-1.94
773.60,-1.94
774.10,-1.94
774.60,-1.94
775.10,-1.95
775.60,-1.95
776.10,-1.95
776.60,-1.95
777.10,-1.96
777.60,-1.96
778.10,-1.96
778.60,-1.96
779.10,-1.97
779.60,-1.97
780.10,-1.97
780.60,-1.97
781.10,-1.98
781.60,-1.98
782.10,-1.98
782.60,-1.98
783.10,-1.99
783.60,-1.99
784.10,-1.99
784.60,-1.99
785.10,-2.00
785.60,-2.00
786.10,-2.00
786.60,-2.00
787.10,-2.01
787.60,-2.01
788.10,-2.01
788.60,-2.01
789.10,-2.01
789.60,-2.02
790.10,-2.02
790.60,-2.02
791.10,-2.02
791.60,-2.03
792.10,-2.03
792.60,-2.03
793.10,-2.03
793.60,-2.04
794.10,-2.04
794.60,-2.04
795.10,-2.04
795.60,-2.05
796.10,-2.05
796.60,-2.05
797.10,-2.05
797.60,-2.06
798.10,-2.06
798.60,-2.06
799.10,-2.06
799.60,-2.07
800.10,-2.07
800.60,-2.07
801.10,-2.07
801.60,-2.08
802.10,-2.08
802.60,-2.08
803.10,-2.08
803.60,-2.09
804.10,-2.09
804.60,-2.09
805.10,-2.09
805.60,-2.10
806.10,-2.10
806.60,-2.10
807.10,-2.10
807.60,-2.11
808.10,-2.11
808.60,-2.11
809.10,-2.11
809.60,-2.12
810.10,-2.12
810.60,-2.12
811.10,-2.12
811.60,-2.13
812.10,-2.13
812.60,-2.13
813.10,-2.13
813.60,-2.14
814.10,-2.14
814.60,-2.14
815.10,-2.14
815.60,-2.15
816.10,-2.15
816.60,-2.15
817.10,-2.15
817.60,-2.16
818.10,-2.16
818.60,-2.16
819.10,-2.16
819.60,-2.17
820.10,-2.17
820.60,-2.17
821.10,-2.17
821.60,-2.18
822.10,-2.18
822.60,-2.18
823.10,-2.18
823.60,-2.19
824.10,-2.19
824.60,-2.19
825.10,-2.19
825.60,-2.20
826.10,-2.20
826.60,-2.20
827.10,-2.20
827.60,-2.21
828.10,-2.21
828.60,-2.21
829.10,-2.21
829.60,-2.22
830.10,-2.22
830.60,-2.22
831.10,-2.22
831.60,-2.23
832.10,-2.23
832.60,-2.23
833.10,-2.23
833.60,-2.24
834.10,-2.24
834.60,-2.24
835.10,-2.24
835.60,-2.25
836.10,-2.25
836.60,-2.25
837.10,-2.25
837.60,-2.26
838.10,-2.26
838.60,-2.26
839.10,-2.26
839.60,-2.27
840.11,-2.27
840.61,-2.27
841.11,-2.27
841.61,-2.28
842.11,-2.28
842.61,-2.28
843.11,-2.28
843.61,-2.29
844.11,-2.29
844.61,-2.29
845.11,-2.30
845.61,-2.30
846.11,-2.30
846.61,-2.30
847.11,-2.31
847.61,-2.31
848.11,-2.31
848.61,-2.31
849.11,-2.32
849.61,-2.32
850.11,-2.32
850.61,-2.32
851.11,-2.33
851.61,-2.33
852.11,-2.33
852.61,-2.33
853.11,-2.34
853.61,-2.34
854.11,-2.34
854.61,-2.34
855.11,-2.35
855.61,-2.35
856.11,-2.35
856.61,-2.35
857.11,-2.36
857.61,-2.36
858.11,-2.36
858.61,-2.36
859.11,-2.37
859.61,-2.37
860.11,-2.37
860.61,-2.38
861.11,-2.38
861.61,-2.38
862.11,-2.38
862.61,-2.39
863.11,-2.39
863.61,-2.39
864.11,-2.39
864.61,-2.40
865.11,-2.40
865.61,-2.40
866.11,-2.40
866.61,-2.41
867.11,-2.41
867.61,-2.41
868.11,-2.41
868.61,-2.42
869.11,-2.42
869.61,-2.42
870.11,-2.43
870.61,-2.43
871.11,-2.43
871.61,-2.43
872.11,-2.44
872.61,-2.44
873.11,-2.44
873.61,-2.44
874.11,-2.45
874.61,-2.45
875.11,-2.45
875.61,-2.45
876.11,-2.46
876.61,-2.46
877.11,-2.46
877.61,-2.46
878.11,-2.47
878.61,-2.47
879.11,-2.47
879.61,-2.48
880.11,-2.48
880.61,-2.48
881.11,-2.48
881.61,-2.49
882.11,-2.49
882.61,-2.49
883.11,-2.49
883.61,-2.50
884.11,-2.50
884.61,-2.50
885.11,-2.50
885.61,-2.51
886.11,-2.51
886.61,-2.51
887.11,-2.52
887.61,-2.52
888.11,-2.52
888.61,-2.52
889.11,-2.53
889.61,-2.53
890.11,-2.53
890.61,-2.53
891.11,-2.54
891.61,-2.54
892.11,-2.54
892.61,-2.54
893.11,-2.55
893.61,-2.55
894.11,-2.55
894.61,-2.56
895.11,-2.56
895.61,-2.56
896.11,-2.56
896.61,-2.57
897.11,-2.57
897.61,-2.57
898.11,-2.57
898.61,-2.58
899.11,-2.58
899.61,-2.58
900.11,-2.59
900.61,-2.59
901.11,-2.59
901.61,-2.59
902.11,-2.60
902.61,-2.60
903.11,-2.60
903.61,-2.60
904.11,-2.61
904.61,-2.61
905.11,-2.61
905.61,-2.62
906.11,-2.62
906.61,-2.62
907.11,-2.62
907.61,-2.63
908.11,-2.63
908.61,-2.63
909.11,-2.63
909.61,-2.64
910.11,-2.64
910.61,-2.64
911.11,-2.65
911.61,-2.65
912.11,-2.65
912.61,-2.65
913.11,-2.66
913.61,-2.66
914.11,-2.66
914.61,-2.66
915.11,-2.67
915.61,-2.67
916.11,-2.67
916.61,-2.68
917.11,-2.68
917.61,-2.68
918.11,-2.68
918.61,-2.69
919.11,-2.69
919.61,-2.69
920.12,-2.69
920.62,-2.70
921.12,-2.70
921.62,-2.70
922.12,-2.71
922.62,-2.71
923.12,-2.71
923.62,-2.71
924.12,-2.72
924.62,-2.72
925.12,-2.72
925.62,-2.72
926.12,-2.73
926.62,-2.73
927.12,-2.73
927.62,-2.74
928.12,-2.74
928.62,-2.74
929.12,-2.74
929.62,-2.75
930.12,-2.75
930.62,-2.75
931.12,-2.76
931.62,-2.76
932.12,-2.76
932.62,-2.76
933.12,-2.77
933.62,-2.77
934.12,-2.77
934.62,-2.77
935.12,-2.78
935.62,-2.78
936.12,-2.78
936.62,-2.79
937.12,-2.79
937.62,-2.79
938.12,-2.79
938.62,-2.80
939.12,-2.80
939.62,-2.80
940.12,-2.81
940.62,-2.81
941.12,-2.81
941.62,-2.81
942.12,-2.82
942.62,-2.82
943.12,-2.82
943.62,-2.82
944.12,-2.83
944.62,-2.83
945.12,-2.83
945.62,-2.84
946.12,-2.84
946.62,-2.84
947.12,-2.84
947.62,-2.85
948.12,-2.85
948.62,-2.85
949.12,-2.86
949.62,-2.86
950.12,-2.86
950.62,-2.86
951.12,-2.87
951.62,-2.87
952.12,-2.87
952.62,-2.88
953.12,-2.88
953.62,-2.88
954.12,-2.88
954.62,-2.89
955.12,-2.89
955.62,-2.89
956.12,-2.90
956.62,-2.90
957.12,-2.90
957.62,-2.90
958.12,-2.91
958.62,-2.91
959.12,-2.91
959.62,-2.92
960.12,-2.92
960.62,-2.92
961.12,-2.92
961.62,-2.93
962.12,-2.93
962.62,-2.93
963.12,-2.94
963.62,-2.94
964.12,-2.94
964.62,-2.94
965.12,-2.95
965.62,-2.95
966.12,-2.95
966.62,-2.96
967.12,-2.96
967.62,-2.96
968.12,-2.96
968.62,-2.97
969.12,-2.97
969.62,-2.97
970.12,-2.98
970.62,-2.98
971.12,-2.98
971.62,-2.98
972.12,-2.99
972.62,-2.99
973.12,-2.99
973.62,-3.00
974.12,-3.00
974.62,-3.00
975.12,-3.00
975.62,-3.01
976.12,-3.01
976.62,-3.01
977.12,-3.02
977.62,-3.02
978.12,-3.02
978.62,-3.02
979.12,-3.03
979.62,-3.03
980.12,-3.03
980.62,-3.04
981.12,-3.04
981.62,-3.04
982.12,-3.04
982.62,-3.05
983.12,-3.05
983.62,-3.05
984.12,-3.06
984.62,-3.06
985.12,-3.06
985.62,-3.06
986.12,-3.07
986.62,-3.07
987.12,-3.07
987.62,-3.08
988.12,-3.08
988.62,-3.08
989.12,-3.09
989.62,-3.09
990.12,-3.09
990.62,-3.09
991.12,-3.10
991.62,-3.10
992.12,-3.10
992.62,-3.11
993.12,-3.11
993.62,-3.11
994.12,-3.11
994.62,-3.12
995.12,-3.12
995.62,-3.12
996.12,-3.13
996.62,-3.13
997.12,-3.13
997.62,-3.13
998.12,-3.14
998.62,-3.14
999.12,-3.14
999.62,-3.15
1000.13,-3.15
1000.63,-3.15
1001.13,-3.16
1001.63,-3.16
1002.13,-3.16
1002.63,-3.16
1003.13,-3.17
1003.63,-3.17
1004.13,-3.17
1004.63,-3.18
1005.13,-3.18
1005.63,-3.18
1006.13,-3.18
1006.63,-3.19
1007.13,-3.19
1007.63,-3.19
1008.13,-3.20
1008.63,-3.20
1009.13,-3.20
1009.63,-3.21
1010.13,-3.21
1010.63,-3.21
1011.13,-3.21
1011.63,-3.22
1012.13,-3.22
1012.63,-3.22
1013.13,-3.23
1013.63,-3.23
1014.13,-3.23
1014.63,-3.23
1015.13,-3.24
1015.63,-3.24
1016.13,-3.24
1016.63,-3.25
1017.13,-3.25
1017.63,-3.25
1018.13,-3.26
1018.63,-3.26
1019.13,-3.26
1019.63,-3.26
1020.13,-3.27
1020.63,-3.27
1021.13,-3.27
1021.63,-3.28
1022.13,-3.28
1022.63,-3.28
1023.13,-3.29
1023.63,-3.29
1024.13,-3.29
1024.63,-3.29
1025.13,-3.30
1025.63,-3.30
1026.13,-3.30
1026.63,-3.31
1027.13,-3.31
1027.63,-3.31
1028.13,-3.32
1028.63,-3.32
1029.13,-3.32
1029.63,-3.32
1030.13,-3.33
1030.63,-3.33
1031.13,-3.33
1031.63,-3.34
1032.13,-3.34
1032.63,-3.34
1033.13,-3.35
1033.63,-3.35
1034.13,-3.35
1034.63,-3.35
1035.13,-3.36
1035.63,-3.36
1036.13,-3.36
1036.63,-3.37
1037.13,-3.37
1037.63,-3.37
1038.13,-3.38
1038.63,-3.38
1039.13,-3.38
1039.63,-3.38
1040.13,-3.39
1040.63,-3.39
1041.13,-3.39
1041.63,-3.40
1042.13,-3.40
1042.63,-3.40
1043.13,-3.41
1043.63,-3.41
1044.13,-3.41
1044.63,-3.41
1045.13,-3.42
1045.63,-3.42
1046.13,-3.42
1046.63,-3.43
1047.13,-3.43
1047.63,-3.43
1048.13,-3.44
1048.63,-3.44
1049.13,-3.44
1049.63,-3.45
1050.13,-3.45
1050.63,-3.45
1051.13,-3.45
1051.63,-3.46
1052.13,-3.46
1052.63,-3.46
1053.13,-3.47
1053.63,-3.47
1054.13,-3.47
1054.63,-3.48
1055.13,-3.48
1055.63,-3.48
1056.13,-3.48
1056.63,-3.49
1057.13,-3.49
1057.63,-3.49
1058.13,-3.50
1058.63,-3.50
1059.13,-3.50
1059.63,-3.51
1060.13,-3.51
1060.63,-3.51
1061.13,-3.52
1061.63,-3.52
1062.13,-3.52
1062.63,-3.52
1063.13,-3.53
1063.63,-3.53
1064.13,-3.53
1064.63,-3.54
1065.13,-3.54
1065.63,-3.54
1066.13,-3.55
1066.63,-3.55
1067.13,-3.55
1067.63,-3.56
1068.13,-3.56
1068.63,-3.56
1069.13,-3.56
1069.63,-3.57
1070.13,-3.57
1070.63,-3.57
1071.13,-3.58
1071.63,-3.58
1072.13,-3.58
1072.63,-3.59
1073.13,-3.59
1073.63,-3.59
1074.13,-3.60
1074.63,-3.60
1075.13,-3.60
1075.63,-3.60
1076.13,-3.61
1076.63,-3.61
1077.13,-3.61
1077.63,-3.62
1078.13,-3.62
1078.63,-3.62
1079.13,-3.63
1079.63,-3.63
1080.14,-3.63
1080.64,-3.64
1081.14,-3.64
1081.64,-3.64
1082.14,-3.65
1082.64,-3.65
1083.14,-3.65
1083.64,-3.65
1084.14,-3.66
1084.64,-3.66
1085.14,-3.66
1085.64,-3.67
1086.14,-3.67
1086.64,-3.67
1087.14,-3.68
1087.64,-3.68
1088.14,-3.68
1088.64,-3.69
1089.14,-3.69
1089.64,-3.69
1090.14,-3.70
1090.64,-3.70
1091.14,-3.70
1091.64,-3.70
1092.14,-3.71
1092.64,-3.71
1093.14,-3.71
1093.64,-3.72
1094.14,-3.72
1094.64,-3.72
1095.14,-3.73
1095.64,-3.73
1096.14,-3.73
1096.64,-3.74
1097.14,-3.74
1097.64,-3.74
1098.14,-3.75
1098.64,-3.75
1099.14,-3.75
1099.64,-3.75
1100.14,-3.76
1100.64,-3.76
1101.14,-3.76
1101.64,-3.77
1102.14,-3.77
1102.64,-3.77
1103.14,-3.78
1103.64,-3.78
1104.14,-3.78
1104.64,-3.79
1105.14,-3.79
1105.64,-3.79
1106.14,-3.80
1106.64,-3.80
1107.14,-3.80
1107.64,-3.81
1108.14,-3.81
1108.64,-3.81
1109.14,-3.81
1109.64,-3.82
1110.14,-3.82
1110.64,-3.82
1111.14,-3.83
1111.64,-3.83
1112.14,-3.83
1112.64,-3.84
1113.14,-3.84
1113.64,-3.84
1114.14,-3.85
1114.64,-3.85
1115.14,-3.85
1115.64,-3.86
1116.14,-3.86
1116.64,-3.86
1117.14,-3.87
1117.64,-3.87
1118.14,-3.87
1118.64,-3.88
1119.14,-3.88
1119.64,-3.88
1120.14,-3.88
1120.64,-3.89
1121.14,-3.89
1121.64,-3.89
1122.14,-3.90
1122.64,-3.90
1123.14,-3.90
1123.64,-3.91
1124.14,-3.91
1124.64,-3.91
1125.14,-3.92
1125.64,-3.92
1126.14,-3.92
1126.64,-3.93
1127.14,-3.93
1127.64,-3.93
1128.14,-3.94
1128.64,-3.94
1129.14,-3.94
1129.64,-3.95
1130.14,-3.95
1130.64,-3.95
1131.14,-3.96
1131.64,-3.96
1132.14,-3.96
1132.64,-3.97
1133.14,-3.97
1133.64,-3.97
1134.14,-3.97
1134.64,-3.98
1135.14,-3.98
1135.64,-3.98
1136.14,-3.99
1136.64,-3.99
1137.14,-3.99
1137.64,-4.00
1138.14,-4.00
1138.64,-4.00
1139.14,-4.01
1139.64,-4.01
1140.14,-4.01
1140.64,-4.02
1141.14,-4.02
1141.64,-4.02
1142.14,-4.03
1142.64,-4.03
1143.14,-4.03
1143.64,-4.04
1144.14,-4.04
1144.64,-4.04
1145.14,-4.05
1145.64,-4.05
1146.14,-4.05
1146.64,-4.06
1147.14,-4.06
1147.64,-4.06
1148.14,-4.07
1148.64,-4.07
1149.14,-4.07
1149.64,-4.08
1150.14,-4.08
1150.64,-4.08
1151.14,-4.08
1151.64,-4.09
1152.14,-4.09
1152.64,-4.09
1153.14,-4.10
1153.64,-4.10
1154.14,-4.10
1154.64,-4.11
1155.14,-4.11
1155.64,-4.11
1156.14,-4.12
1156.64,-4.12
1157.14,-4.12
1157.64,-4.13
1158.14,-4.13
1158.64,-4.13
1159.14,-4.14
1159.64,-4.14
1160.15,-4.14
1160.65,-4.15
1161.15,-4.15
1161.65,-4.15
1162.15,-4.16
1162.65,-4.16
1163.15,-4.16
1163.65,-4.17
1164.15,-4.17
1164.65,-4.17
1165.15,-4.18
1165.65,-4.18
1166.15,-4.18
1166.65,-4.19
1167.15,-4.19
1167.65,-4.19
1168.15,-4.20
1168.65,-4.20
1169.15,-4.20
1169.65,-4.21
1170.15,-4.21
1170.65,-4.21
1171.15,-4.22
1171.65,-4.22
1172.15,-4.22
1172.65,-4.23
1173.15,-4.23
1173.65,-4.23
1174.15,-4.24
1174.65,-4.24
1175.15,-4.24
1175.65,-4.25
1176.15,-4.25
1176.65,-4.25
1177.15,-4.26
1177.65,-4.26
1178.15,-4.26
1178.65,-4.27
1179.15,-4.27
1179.65,-4.27
1180.15,-4.28
1180.65,-4.28
1181.15,-4.28
1181.65,-4.29
1182.15,-4.29
1182.65,-4.29
1183.15,-4.30
1183.65,-4.30
1184.15,-4.30
1184.65,-4.31
1185.15,-4.31
1185.65,-4.31
1186.15,-4.32
1186.65,-4.32
1187.15,-4.32
1187.65,-4.33
1188.15,-4.33
1188.65,-4.33
1189.15,-4.34
1189.65,-4.34
1190.15,-4.34
1190.65,-4.35
1191.15,-4.35
1191.65,-4.35
1192.15,-4.36
1192.65,-4.36
1193.15,-4.36
1193.65,-4.37
1194.15,-4.37
1194.65,-4.37
1195.15,-4.38
1195.65,-4.38
1196.15,-4.38
1196.65,-4.39
1197.15,-4.39
1197.65,-4.39
1198.15,-4.40
1198.65,-4.40
1199.15,-4.40
1199.65,-4.41
1200.15,-4.41
1200.65,-4.41
1201.15,-4.42
1201.65,-4.42
1202.15,-4.42
1202.65,-4.43
1203.15,-4.43
1203.65,-4.43
1204.15,-4.44
1204.65,-4.44
1205.15,-4.44
1205.65,-4.45
1206.15,-4.45
1206.65,-4.45
1207.15,-4.46
1207.65,-4.46
1208.15,-4.46
1208.65,-4.47
1209.15,-4.47
1209.65,-4.47
1210.15,-4.48
1210.65,-4.48
1211.15,-4.48
1211.65,-4.49
1212.15,-4.49
1212.65,-4.49
1213.15,-4.50
1213.65,-4.50
1214.15,-4.50
1214.65,-4.51
1215.15,-4.51
1215.65,-4.51
1216.15,-4.52
1216.65,-4.52
1217.15,-4.52
1217.65,-4.53
1218.15,-4.53
1218.65,-4.53
1219.15,-4.54
1219.65,-4.54
1220.15,-4.54
1220.65,-4.55
1221.15,-4.55
1221.65,-4.55
1222.15,-4.56
1222.65,-4.56
1223.15,-4.56
1223.65,-4.57
1224.15,-4.57
1224.65,-4.57
1225.15,-4.58
1225.65,-4.58
1226.15,-4.58
1226.65,-4.59
1227.15,-4.59
1227.65,-4.60
1228.15,-4.60
1228.65,-4.60
1229.15,-4.61
1229.65,-4.61
1230.15,-4.61
1230.65,-4.62
1231.15,-4.62
1231.65,-4.62
1232.15,-4.63
1232.65,-4.63
1233.15,-4.63
1233.65,-4.64
1234.15,-4.64
1234.65,-4.64
1235.15,-4.65
1235.65,-4.65
1236.15,-4.65
1236.65,-4.66
1237.15,-4.66
1237.65,-4.66
1238.15,-4.67
1238.65,-4.67
1239.15,-4.67
1239.65,-4.68
1240.16,-4.68
1240.66,-4.68
1241.16,-4.69
1241.66,-4.69
1242.16,-4.69
1242.66,-4.70
1243.16,-4.70
1243.66,-4.70
1244.16,-4.71
1244.66,-4.71
1245.16,-4.72
1245.66,-4.72
1246.16,-4.72
1246.66,-4.73
1247.16,-4.73
1247.66,-4.73
1248.16,-4.74
1248.66,-4.74
1249.16,-4.74
1249.66,-4.75
1250.16,-4.75
1250.66,-4.75
1251.16,-4.76
1251.66,-4.76
1252.16,-4.76
1252.66,-4.77
1253.16,-4.77
1253.66,-4.77
1254.16,-4.78
1254.66,-4.78
1255.16,-4.78
1255.66,-4.79
1256.16,-4.79
1256.66,-4.79
1257.16,-4.80
1257.66,-4.80
1258.16,-4.81
1258.66,-4.81
1259.16,-4.81
1259.66,-4.82
1260.16,-4.82
1260.66,-4.82
1261.16,-4.83
1261.66,-4.83
1262.16,-4.83
1262.66,-4.84
1263.16,-4.84
1263.66,-4.84
1264.16,-4.85
1264.66,-4.85
1265.16,-4.85
1265.66,-4.86
1266.16,-4.86
1266.66,-4.86
1267.16,-4.87
1267.66,-4.87
1268.16,-4.87
1268.66,-4.88
1269.16,-4.88
1269.66,-4.89
1270.16,-4.89
1270.66,-4.89
1271.16,-4.90
1271.66,-4.90
1272.16,-4.90
1272.66,-4.91
1273.16,-4.91
1273.66,-4.91
1274.16,-4.92
1274.66,-4.92
1275.16,-4.92
1275.66,-4.93
1276.16,-4.93
1276.66,-4.93
1277.16,-4.94
1277.66,-4.94
1278.16,-4.94
1278.66,-4.95
1279.16,-4.95
1279.66,-4.96
1280.16,-4.96
1280.66,-4.96
1281.16,-4.97
1281.66,-4.97
1282.16,-4.97
1282.66,-4.98
1283.16,-4.98
1283.66,-4.98
1284.16,-4.99
1284.66,-4.99
1285.16,-4.99
1285.66,-5.00
1286.16,-5.00
1286.66,-5.00
1287.16,-5.01
1287.66,-5.01
1288.16,-5.02
1288.66,-5.02
1289.16,-5.02
1289.66,-5.03
1290.16,-5.03
1290.66,-5.03
1291.16,-5.04
1291.66,-5.04
1292.16,-5.04
1292.66,-5.05
1293.16,-5.05
1293.66,-5.05
1294.16,-5.06
1294.66,-5.06
1295.16,-5.06
1295.66,-5.07
1296.16,-5.07
1296.66,-5.08
1297.16,-5.08
1297.66,-5.08
1298.16,-5.09
1298.66,-5.09
1299.16,-5.09
1299.66,-5.10
1300.16,-5.10
1300.66,-5.10
1301.16,-5.11
1301.66,-5.11
1302.16,-5.11
1302.66,-5.12
1303.16,-5.12
1303.66,-5.12
1304.16,-5.13
1304.66,-5.13
1305.16,-5.14
1305.66,-5.14
1306.16,-5.14
1306.66,-5.15
1307.16,-5.15
1307.66,-5.15
1308.16,-5.16
1308.66,-5.16
1309.16,-5.16
1309.66,-5.17
1310.16,-5.17
1310.66,-5.17
1311.16,-5.18
1311.66,-5.18
1312.16,-5.19
1312.66,-5.19
1313.16,-5.19
1313.66,-5.20
1314.16,-5.20
1314.66,-5.20
1315.16,-5.21
1315.66,-5.21
1316.16,-5.21
1316.66,-5.22
1317.16,-5.22
1317.66,-5.23
1318.16,-5.23
1318.66,-5.23
1319.16,-5.24
1319.66,-5.24
1320.17,-5.24
1320.67,-5.25
1321.17,-5.25
1321.67,-5.25
1322.17,-5.26
1322.67,-5.26
1323.17,-5.26
1323.67,-5.27
1324.17,-5.27
1324.67,-5.28
1325.17,-5.28
1325.67,-5.28
1326.17,-5.29
1326.67,-5.29
1327.17,-5.29
1327.67,-5.30
1328.17,-5.30
1328.67,-5.30
1329.17,-5.31
1329.67,-5.31
1330.17,-5.32
1330.67,-5.32
1331.17,-5.32
1331.67,-5.33
1332.17,-5.33
1332.67,-5.33
1333.17,-5.34
1333.67,-5.34
1334.17,-5.34
1334.67,-5.35
1335.17,-5.35
1335.67,-5.35
1336.17,-5.36
1336.67,-5.36
1337.17,-5.37
1337.67,-5.37
1338.17,-5.37
1338.67,-5.38
1339.17,-5.38
1339.67,-5.38
1340.17,-5.39
1340.67,-5.39
1341.17,-5.39
1341.67,-5.40
1342.17,-5.40
1342.67,-5.41
1343.17,-5.41
1343.67,-5.41
1344.17,-5.42
1344.67,-5.42
1345.17,-5.42
1345.67,-5.43
1346.17,-5.43
1346.67,-5.43
1347.17,-5.44
1347.67,-5.44
1348.17,-5.45
1348.67,-5.45
1349.17,-5.45
1349.67,-5.46
1350.17,-5.46
1350.67,-5.46
1351.17,-5.47
1351.67,-5.47
1352.17,-5.47
1352.67,-5.48
1353.17,-5.48
1353.67,-5.49
1354.17,-5.49
1354.67,-5.49
1355.17,-5.50
1355.67,-5.50
1356.17,-5.50
1356.67,-5.51
1357.17,-5.51
1357.67,-5.52
1358.17,-5.52
1358.67,-5.52
1359.17,-5.53
1359.67,-5.53
1360.17,-5.53
1360.67,-5.54
1361.17,-5.54
1361.67,-5.54
1362.17,-5.55
1362.67,-5.55
1363.17,-5.56
1363.67,-5.56
1364.17,-5.56
1364.67,-5.57
1365.17,-5.57
1365.67,-5.57
1366.17,-5.58
1366.67,-5.58
1367.17,-5.58
1367.67,-5.59
1368.17,-5.59
1368.67,-5.60
1369.17,-5.60
1369.67,-5.60
1370.17,-5.61
1370.67,-5.61
1371.17,-5.61
1371.67,-5.62
1372.17,-5.62
1372.67,-5.63
1373.17,-5.63
1373.67,-5.63
1374.17,-5.64
1374.67,-5.64
1375.17,-5.64
1375.67,-5.65
1376.17,-5.65
1376.67,-5.65
1377.17,-5.66
1377.67,-5.66
1378.17,-5.67
1378.67,-5.67
1379.17,-5.67
1379.67,-5.68
1380.17,-5.68
1380.67,-5.68
1381.17,-5.69
1381.67,-5.69
1382.17,-5.70
1382.67,-5.70
1383.17,-5.70
1383.67,-5.71
1384.17,-5.71
1384.67,-5.71
1385.17,-5.72
1385.67,-5.72
1386.17,-5.73
1386.67,-5.73
1387.17,-5.73
1387.67,-5.74
1388.17,-5.74
1388.67,-5.74
1389.17,-5.75
1389.67,-5.75
1390.17,-5.76
1390.67,-5.76
1391.17,-5.76
1391.67,-5.77
1392.17,-5.77
1392.67,-5.77
1393.17,-5.78
1393.67,-5.78
1394.17,-5.79
1394.67,-5.79
1395.17,-5.79
1395.67,-5.80
1396.17,-5.80
1396.67,-5.80
1397.17,-5.81
1397.67,-5.81
1398.17,-5.81
1398.67,-5.82
1399.17,-5.82
1399.67,-5.83
1400.18,-5.83
1400.68,-5.83
1401.18,-5.84
1401.68,-5.84
1402.18,-5.84
1402.68,-5.85
1403.18,-5.85
1403.68,-5.86
1404.18,-5.86
1404.68,-5.86
1405.18,-5.87
1405.68,-5.87
1406.18,-5.87
1406.68,-5.88
1407.18,-5.88
1407.68,-5.89
1408.18,-5.89
1408.68,-5.89
1409.18,-5.90
1409.68,-5.90
1410.18,-5.90
1410.68,-5.91
1411.18,-5.91
1411.68,-5.92
1412.18,-5.92
1412.68,-5.92
1413.18,-5.93
1413.68,-5.93
1414.18,-5.94
1414.68,-5.94
1415.18,-5.94
1415.68,-5.95
1416.18,-5.95
1416.68,-5.95
1417.18,-5.96
1417.68,-5.96
1418.18,-5.97
1418.68,-5.97
1419.18,-5.97
1419.68,-5.98
1420.18,-5.98
1420.68,-5.98
1421.18,-5.99
1421.68,-5.99
1422.18,-6.00
1422.68,-6.00
1423.18,-6.00
1423.68,-6.01
1424.18,-6.01
1424.68,-6.01
1425.18,-6.02
1425.68,-6.02
1426.18,-6.03
1426.68,-6.03
1427.18,-6.03
1427.68,-6.04
1428.18,-6.04
1428.68,-6.04
1429.18,-6.05
1429.68,-6.05
1430.18,-6.06
1430.68,-6.06
1431.18,-6.06
1431.68,-6.07
1432.18,-6.07
1432.68,-6.08
1433.18,-6.08
1433.68,-6.08
1434.18,-6.09
1434.68,-6.09
1435.18,-6.09
1435.68,-6.10
1436.18,-6.10
1436.68,-6.11
1437.18,-6.11
1437.68,-6.11
1438.18,-6.12
1438.68,-6.12
1439.18,-6.12
1439.68,-6.13
1440.18,-6.13
1440.68,-6.14
1441.18,-6.14
1441.68,-6.14
1442.18,-6.15
1442.68,-6.15
1443.18,-6.16
1443.68,-6.16
1444.18,-6.16
1444.68,-6.17
1445.18,-6.17
1445.68,-6.17
1446.18,-6.18
1446.68,-6.18
1447.18,-6.19
1447.68,-6.19
1448.18,-6.19
1448.68,-6.20
1449.18,-6.20
1449.68,-6.21
1450.18,-6.21
1450.68,-6.21
1451.18,-6.22
1451.68,-6.22
1452.18,-6.22
1452.68,-6.23
1453.18,-6.23
1453.68,-6.24
1454.18,-6.24
1454.68,-6.24
1455.18,-6.25
1455.68,-6.25
1456.18,-6.25
1456.68,-6.26
1457.18,-6.26
1457.68,-6.27
1458.18,-6.27
1458.68,-6.27
1459.18,-6.28
1459.68,-6.28
1460.18,-6.29
1460.68,-6.29
1461.18,-6.29
1461.68,-6.30
1462.18,-6.30
1462.68,-6.31
1463.18,-6.31
1463.68,-6.31
1464.18,-6.32
1464.68,-6.32
1465.18,-6.32
1465.68,-6.33
1466.18,-6.33
1466.68,-6.34
1467.18,-6.34
1467.68,-6.34
1468.18,-6.35
1468.68,-6.35
1469.18,-6.36
1469.68,-6.36
1470.18,-6.36
1470.68,-6.37
1471.18,-6.37
1471.68,-6.37
1472.18,-6.38
1472.68,-6.38
1473.18,-6.39
1473.68,-6.39
1474.18,-6.39
1474.68,-6.40
1475.18,-6.40
1475.68,-6.41
1476.18,-6.41
1476.68,-6.41
1477.18,-6.42
1477.68,-6.42
1478.18,-6.43
1478.68,-6.43
1479.18,-6.43
1479.68,-6.44
1480.19,-6.44
1480.69,-6.44
1481.19,-6.45
1481.69,-6.45
1482.19,-6.46
1482.69,-6.46
1483.19,-6.46
1483.69,-6.47
1484.19,-6.47
1484.69,-6.48
1485.19,-6.48
1485.69,-6.48
1486.19,-6.49
1486.69,-6.49
1487.19,-6.50
1487.69,-6.50
1488.19,-6.50
1488.69,-6.51
1489.19,-6.51
1489.69,-6.51
1490.19,-6.52
1490.69,-6.52
1491.19,-6.53
1491.69,-6.53
1492.19,-6.53
1492.69,-6.54
1493.19,-6.54
1493.69,-6.55
1494.19,-6.55
1494.69,-6.55
1495.19,-6.56
1495.69,-6.56
1496.19,-6.57
1496.69,-6.57
1497.19,-6.57
1497.69,-6.58
1498.19,-6.58
1498.69,-6.59
1499.19,-6.59
1499.69,-6.59
1500.19,-6.60
1500.69,-6.60
1501.19,-6.61
1501.69,-6.61
1502.19,-6.61
1502.69,-6.62
1503.19,-6.62
1503.69,-6.62
1504.19,-6.63
1504.69,-6.63
1505.19,-6.64
1505.69,-6.64
1506.19,-6.64
1506.69,-6.65
1507.19,-6.65
1507.69,-6.66
1508.19,-6.66
1508.69,-6.66
1509.19,-6.67
1509.69,-6.67
1510.19,-6.68
1510.69,-6.68
1511.19,-6.68
1511.69,-6.69
1512.19,-6.69
1512.69,-6.70
1513.19,-6.70
1513.69,-6.70
1514.19,-6.71
1514.69,-6.71
1515.19,-6.72
1515.69,-6.72
1516.19,-6.72
1516.69,-6.73
1517.19,-6.73
1517.69,-6.74
1518.19,-6.74
1518.69,-6.74
1519.19,-6.75
1519.69,-6.75
1520.19,-6.76
1520.69,-6.76
1521.19,-6.76
1521.69,-6.77
1522.19,-6.77
1522.69,-6.77
1523.19,-6.78
1523.69,-6.78
1524.19,-6.79
1524.69,-6.79
1525.19,-6.79
1525.69,-6.80
1526.19,-6.80
1526.69,-6.81
1527.19,-6.81
1527.69,-6.81
1528.19,-6.82
1528.69,-6.82
1529.19,-6.83
1529.69,-6.83
1530.19,-6.83
1530.69,-6.84
1531.19,-6.84
1531.69,-6.85
1532.19,-6.85
1532.69,-6.85
1533.19,-6.86
1533.69,-6.86
1534.19,-6.87
1534.69,-6.87
1535.19,-6.87
1535.69,-6.88
1536.19,-6.88
1536.69,-6.89
1537.19,-6.89
1537.69,-6.89
1538.19,-6.90
1538.69,-6.90
1539.19,-6.91
1539.69,-6.91
1540.19,-6.91
1540.69,-6.92
1541.19,-6.92
1541.69,-6.93
1542.19,-6.93
1542.69,-6.93
1543.19,-6.94
1543.69,-6.94
1544.19,-6.95
1544.69,-6.95
1545.19,-6.95
1545.69,-6.96
1546.19,-6.96
1546.69,-6.97
1547.19,-6.97
1547.69,-6.97
1548.19,-6.98
1548.69,-6.98
1549.19,-6.99
1549.69,-6.99
1550.19,-6.99
1550.69,-7.00
1551.19,-7.00
1551.69,-7.01
1552.19,-7.01
1552.69,-7.01
1553.19,-7.02
1553.69,-7.02
1554.19,-7.03
1554.69,-7.03
1555.19,-7.04
1555.69,-7.04
1556.19,-7.04
1556.69,-7.05
1557.19,-7.05
1557.69,-7.06
1558.19,-7.06
1558.69,-7.06
1559.19,-7.07
1559.69,-7.07
1560.20,-7.08
1560.70,-7.08
1561.20,-7.08
1561.70,-7.09
1562.20,-7.09
1562.70,-7.10
1563.20,-7.10
1563.70,-7.10
1564.20,-7.11
1564.70,-7.11
1565.20,-7.12
1565.70,-7.12
1566.20,-7.12
1566.70,-7.13
1567.20,-7.13
1567.70,-7.14
1568.20,-7.14
1568.70,-7.14
1569.20,-7.15
1569.70,-7.15
1570.20,-7.16
1570.70,-7.16
1571.20,-7.16
1571.70,-7.17
1572.20,-7.17
1572.70,-7.18
1573.20,-7.18
1573.70,-7.18
1574.20,-7.19
1574.70,-7.19
1575.20,-7.20
1575.70,-7.20
1576.20,-7.21
1576.70,-7.21
1577.20,-7.21
1577.70,-7.22
1578.20,-7.22
1578.70,-7.23
1579.20,-7.23
1579.70,-7.23
1580.20,-7.24
1580.70,-7.24
1581.20,-7.25
1581.70,-7.25
1582.20,-7.25
1582.70,-7.26
1583.20,-7.26
1583.70,-7.27
1584.20,-7.27
1584.70,-7.27
1585.20,-7.28
1585.70,-7.28
1586.20,-7.29
1586.70,-7.29
1587.20,-7.29
1587.70,-7.30
1588.20,-7.30
1588.70,-7.31
1589.20,-7.31
1589.70,-7.32
1590.20,-7.32
1590.70,-7.32
1591.20,-7.33
1591.70,-7.33
1592.20,-7.34
1592.70,-7.34
1593.20,-7.34
1593.70,-7.35
1594.20,-7.35
1594.70,-7.36
1595.20,-7.36
1595.70,-7.36
1596.20,-7.37
1596.70,-7.37
1597.20,-7.38
1597.70,-7.38
1598.20,-7.39
1598.70,-7.39
1599.20,-7.39
1599.70,-7.40
1600.20,-7.40
1600.70,-7.41
1601.20,-7.41
1601.70,-7.41
1602.20,-7.42
1602.70,-7.42
1603.20,-7.43
1603.70,-7.43
1604.20,-7.43
1604.70,-7.44
1605.20,-7.44
1605.70,-7.45
1606.20,-7.45
1606.70,-7.46
1607.20,-7.46
1607.70,-7.46
1608.20,-7.47
1608.70,-7.47
1609.20,-7.48
1609.70,-7.48
1610.20,-7.48
1610.70,-7.49
1611.20,-7.49
1611.70,-7.50
1612.20,-7.50
1612.70,-7.50
1613.20,-7.51
1613.70,-7.51
1614.20,-7.52
1614.70,-7.52
1615.20,-7.53
1615.70,-7.53
1616.20,-7.53
1616.70,-7.54
1617.20,-7.54
1617.70,-7.55
1618.20,-7.55
1618.70,-7.55
1619.20,-7.56
1619.70,-7.56
1620.20,-7.57
1620.70,-7.57
1621.20,-7.58
1621.70,-7.58
1622.20,-7.58
1622.70,-7.59
1623.20,-7.59
1623.70,-7.60
1624.20,-7.60
1624.70,-7.60
1625.20,-7.61
1625.70,-7.61
1626.20,-7.62
1626.70,-7.62
1627.20,-7.63
1627.70,-7.63
1628.20,-7.63
1628.70,-7.64
1629.20,-7.64
1629.70,-7.65
1630.20,-7.65
1630.70,-7.65
1631.20,-7.66
1631.70,-7.66
1632.20,-7.67
1632.70,-7.67
1633.20,-7.68
1633.70,-7.68
1634.20,-7.68
1634.70,-7.69
1635.20,-7.69
1635.70,-7.70
1636.20,-7.70
1636.70,-7.70
1637.20,-7.71
1637.70,-7.71
1638.20,-7.72
1638.70,-7.72
1639.20,-7.73
1639.70,-7.73
1640.21,-7.73
1640.71,-7.74
1641.21,-7.74
1641.71,-7.75
1642.21,-7.75
1642.71,-7.75
1643.21,-7.76
1643.71,-7.76
1644.21,-7.77
1644.71,-7.77
1645.21,-7.78
1645.71,-7.78
1646.21,-7.78
1646.71,-7.79
1647.21,-7.79
1647.71,-7.80
1648.21,-7.80
1648.71,-7.80
1649.21,-7.81
1649.71,-7.81
1650.21,-7.82
1650.71,-7.82
1651.21,-7.83
1651.71,-7.83
1652.21,-7.83
1652.71,-7.84
1653.21,-7.84
1653.71,-7.85
1654.21,-7.85
1654.71,-7.86
1655.21,-7.86
1655.71,-7.86
1656.21,-7.87
1656.71,-7.87
1657.21,-7.88
1657.71,-7.88
1658.21,-7.88
1658.71,-7.89
1659.21,-7.89
1659.71,-7.90
1660.21,-7.90
1660.71,-7.91
1661.21,-7.91
1661.71,-7.91
1662.21,-7.92
1662.71,-7.92
1663.21,-7.93
1663.71,-7.93
1664.21,-7.94
1664.71,-7.94
1665.21,-7.94
1665.71,-7.95
1666.21,-7.95
1666.71,-7.96
1667.21,-7.96
1667.71,-7.97
1668.21,-7.97
1668.71,-7.97
1669.21,-7.98
1669.71,-7.98
1670.21,-7.99
1670.71,-7.99
1671.21,-8.00
1671.71,-8.00
1672.21,-8.00
1672.71,-8.01
1673.21,-8.01
1673.71,-8.02
1674.21,-8.02
1674.71,-8.02
1675.21,-8.03
1675.71,-8.03
1676.21,-8.04
1676.71,-8.04
1677.21,-8.05
1677.71,-8.05
1678.21,-8.05
1678.71,-8.06
1679.21,-8.06
1679.71,-8.07
1680.21,-8.07
1680.71,-8.08
1681.21,-8.08
1681.71,-8.08
1682.21,-8.09
1682.71,-8.09
1683.21,-8.10
1683.71,-8.10
1684.21,-8.11
1684.71,-8.11
1685.21,-8.11
1685.71,-8.12
1686.21,-8.12
1686.71,-8.13
1687.21,-8.13
1687.71,-8.14
1688.21,-8.14
1688.71,-8.14
1689.21,-8.15
1689.71,-8.15
1690.21,-8.16
1690.71,-8.16
1691.21,-8.17
1691.71,-8.17
1692.21,-8.17
1692.71,-8.18
1693.21,-8.18
1693.71,-8.19
1694.21,-8.19
1694.71,-8.20
1695.21,-8.20
1695.71,-8.20
1696.21,-8.21
1696.71,-8.21
1697.21,-8.22
1697.71,-8.22
1698.21,-8.23
1698.71,-8.23
1699.21,-8.23
1699.71,-8.24
1700.21,-8.24
1700.71,-8.25
1701.21,-8.25
1701.71,-8.26
1702.21,-8.26
1702.71,-8.26
1703.21,-8.27
1703.71,-8.27
1704.21,-8.28
1704.71,-8.28
1705.21,-8.29
1705.71,-8.29
1706.21,-8.29
1706.71,-8.30
1707.21,-8.30
1707.71,-8.31
1708.21,-8.31
1708.71,-8.32
1709.21,-8.32
1709.71,-8.32
1710.21,-8.33
1710.71,-8.33
1711.21,-8.34
1711.71,-8.34
1712.21,-8.35
1712.71,-8.35
1713.21,-8.35
1713.71,-8.36
1714.21,-8.36
1714.71,-8.37
1715.21,-8.37
1715.71,-8.38
1716.21,-8.38
1716.71,-8.39
1717.21,-8.39
1717.71,-8.39
1718.21,-8.40
1718.71,-8.40
1719.21,-8.41
1719.71,-8.41
1720.22,-8.42
1720.72,-8.42
1721.22,-8.42
1721.72,-8.43
1722.22,-8.43
1722.72,-8.44
1723.22,-8.44
1723.72,-8.45
1724.22,-8.45
1724.72,-8.45
1725.22,-8.46
1725.72,-8.46
1726.22,-8.47
1726.72,-8.47
1727.22,-8.48
1727.72,-8.48
1728.22,-8.49
1728.72,-8.49
1729.22,-8.49
1729.72,-8.50
1730.22,-8.50
1730.72,-8.51
1731.22,-8.51
1731.72,-8.52
1732.22,-8.52
1732.72,-8.52
1733.22,-8.53
1733.72,-8.53
1734.22,-8.54
1734.72,-8.54
1735.22,-8.55
1735.72,-8.55
1736.22,-8.55
1736.72,-8.56
1737.22,-8.56
1737.72,-8.57
1738.22,-8.57
1738.72,-8.58
1739.22,-8.58
1739.72,-8.59
1740.22,-8.59
1740.72,-8.59
1741.22,-8.60
1741.72,-8.60
1742.22,-8.61
1742.72,-8.61
1743.22,-8.62
1743.72,-8.62
1744.22,-8.62
1744.72,-8.63
1745.22,-8.63
1745.72,-8.64
1746.22,-8.64
1746.72,-8.65
1747.22,-8.65
1747.72,-8.66
1748.22,-8.66
1748.72,-8.66
1749.22,-8.67
1749.72,-8.67
1750.22,-8.68
1750.72,-8.68
1751.22,-8.69
1751.72,-8.69
1752.22,-8.70
1752.72,-8.70
1753.22,-8.70
1753.72,-8.71
1754.22,-8.71
1754.72,-8.72
1755.22,-8.72
1755.72,-8.73
1756.22,-8.73
1756.72,-8.73
1757.22,-8.74
1757.72,-8.74
1758.22,-8.75
1758.72,-8.75
1759.22,-8.76
1759.72,-8.76
1760.22,-8.77
1760.72,-8.77
1761.22,-8.77
1761.72,-8.78
1762.22,-8.78
1762.72,-8.79
1763.22,-8.79
1763.72,-8.80
1764.22,-8.80
1764.72,-8.81
1765.22,-8.81
1765.72,-8.81
1766.22,-8.82
1766.72,-8.82
1767.22,-8.83
1767.72,-8.83
1768.22,-8.84
1768.72,-8.84
1769.22,-8.85
1769.72,-8.85
1770.22,-8.85
1770.72,-8.86
1771.22,-8.86
1771.72,-8.87
1772.22,-8.87
1772.72,-8.88
1773.22,-8.88
1773.72,-8.89
1774.22,-8.89
1774.72,-8.89
1775.22,-8.90
1775.72,-8.90
1776.22,-8.91
1776.72,-8.91
1777.22,-8.92
1777.72,-8.92
1778.22,-8.93
1778.72,-8.93
1779.22,-8.93
1779.72,-8.94
1780.22,-8.94
1780.72,-8.95
1781.22,-8.95
1781.72,-8.96
1782.22,-8.96
1782.72,-8.97
1783.22,-8.97
1783.72,-8.97
1784.22,-8.98
1784.72,-8.98
1785.22,-8.99
1785.72,-8.99
1786.22,-9.00
1786.72,-9.00
1787.22,-9.01
1787.72,-9.01
1788.22,-9.01
1788.72,-9.02
1789.22,-9.02
1789.72,-9.03
1790.22,-9.03
1790.72,-9.04
1791.22,-9.04
1791.72,-9.05
1792.22,-9.05
1792.72,-9.05
1793.22,-9.06
1793.72,-9.06
1794.22,-9.07
1794.72,-9.07
1795.22,-9.08
1795.72,-9.08
1796.22,-9.09
1796.72,-9.09
1797.22,-9.09
1797.72,-9.10
1798.22,-9.10
1798.72,-9.11
1799.22,-9.11
1799.72,-9.12
1800.23,-9.12
1800.73,-9.13
1801.23,-9.13
1801.73,-9.14
1802.23,-9.14
1802.73,-9.14
1803.23,-9.15
1803.73,-9.15
1804.23,-9.16
1804.73,-9.16
1805.23,-9.17
1805.73,-9.17
1806.23,-9.18
1806.73,-9.18
1807.23,-9.18
1807.73,-9.19
1808.23,-9.19
1808.73,-9.20
1809.23,-9.20
1809.73,-9.21
1810.23,-9.21
1810.73,-9.22
1811.23,-9.22
1811.73,-9.23
1812.23,-9.23
1812.73,-9.23
1813.23,-9.24
1813.73,-9.24
1814.23,-9.25
1814.73,-9.25
1815.23,-9.26
1815.73,-9.26
1816.23,-9.27
1816.73,-9.27
1817.23,-9.28
1817.73,-9.28
1818.23,-9.28
1818.73,-9.29
1819.23,-9.29
1819.73,-9.30
1820.23,-9.30
1820.73,-9.31
1821.23,-9.31
1821.73,-9.32
1822.23,-9.32
1822.73,-9.32
1823.23,-9.33
1823.73,-9.33
1824.23,-9.34
1824.73,-9.34
1825.23,-9.35
1825.73,-9.35
1826.23,-9.36
1826.73,-9.36
1827.23,-9.37
1827.73,-9.37
1828.23,-9.37
1828.73,-9.38
1829.23,-9.38
1829.73,-9.39
1830.23,-9.39
1830.73,-9.40
1831.23,-9.40
1831.73,-9.41
1832.23,-9.41
1832.73,-9.42
1833.23,-9.42
1833.73,-9.42
1834.23,-9.43
1834.73,-9.43
1835.23,-9.44
1835.73,-9.44
1836.23,-9.45
1836.73,-9.45
1837.23,-9.46
1837.73,-9.46
1838.23,-9.47
1838.73,-9.47
1839.23,-9.48
1839.73,-9.48
1840.23,-9.48
1840.73,-9.49
1841.23,-9.49
1841.73,-9.50
1842.23,-9.50
1842.73,-9.51
1843.23,-9.51
1843.73,-9.52
1844.23,-9.52
1844.73,-9.53
1845.23,-9.53
1845.73,-9.53
1846.23,-9.54
1846.73,-9.54
1847.23,-9.55
1847.73,-9.55
1848.23,-9.56
1848.73,-9.56
1849.23,-9.57
1849.73,-9.57
1850.23,-9.58
1850.73,-9.58
1851.23,-9.59
1851.73,-9.59
1852.23,-9.59
1852.73,-9.60
1853.23,-9.60
1853.73,-9.61
1854.23,-9.61
1854.73,-9.62
1855.23,-9.62
1855.73,-9.63
1856.23,-9.63
1856.73,-9.64
1857.23,-9.64
1857.73,-9.64
1858.23,-9.65
1858.73,-9.65
1859.23,-9.66
1859.73,-9.66
1860.23,-9.67
1860.73,-9.67
1861.23,-9.68
1861.73,-9.68
1862.23,-9.69
1862.73,-9.69
1863.23,-9.70
1863.73,-9.70
1864.23,-9.70
1864.73,-9.71
1865.23,-9.71
1865.73,-9.72
1866.23,-9.72
1866.73,-9.73
1867.23,-9.73
1867.73,-9.74
1868.23,-9.74
1868.73,-9.75
1869.23,-9.75
1869.73,-9.76
1870.23,-9.76
1870.73,-9.76
1871.23,-9.77
1871.73,-9.77
1872.23,-9.78
1872.73,-9.78
1873.23,-9.79
1873.73,-9.79
1874.23,-9.80
1874.73,-9.80
1875.23,-9.81
1875.73,-9.81
1876.23,-9.82
1876.73,-9.82
1877.23,-9.83
1877.73,-9.83
1878.23,-9.83
1878.73,-9.84
1879.23,-9.84
1879.73,-9.85
1880.24,-9.85
1880.74,-9.86
1881.24,-9.86
1881.74,-9.87
1882.24,-9.87
1882.74,-9.88
1883.24,-9.88
1883.74,-9.89
1884.24,-9.89
1884.74,-9.89
1885.24,-9.90
1885.74,-9.90
1886.24,-9.91
1886.74,-9.91
1887.24,-9.92
1887.74,-9.92
1888.24,-9.93
1888.74,-9.93
1889.24,-9.94
1889.74,-9.94
1890.24,-9.95
1890.74,-9.95
1891.24,-9.96
1891.74,-9.96
1892.24,-9.96
1892.74,-9.97
1893.24,-9.97
1893.74,-9.98
1894.24,-9.98
1894.74,-9.99
1895.24,-9.99
1895.74,-10.00
1896.24,-10.00
1896.74,-10.01
1897.24,-10.01
1897.74,-10.02
1898.24,-10.02
1898.74,-10.03
1899.24,-10.03
1899.74,-10.04
1900.24,-10.04
1900.74,-10.04
1901.24,-10.05
1901.74,-10.05
1902.24,-10.06
1902.74,-10.06
1903.24,-10.07
1903.74,-10.07
1904.24,-10.08
1904.74,-10.08
1905.24,-10.09
1905.74,-10.09
1906.24,-10.10
1906.74,-10.10
1907.24,-10.11
1907.74,-10.11
1908.24,-10.11
1908.74,-10.12
1909.24,-10.12
1909.74,-10.13
1910.24,-10.13
1910.74,-10.14
1911.24,-10.14
1911.74,-10.15
1912.24,-10.15
1912.74,-10.16
1913.24,-10.16
1913.74,-10.17
1914.24,-10.17
1914.74,-10.18
1915.24,-10.18
1915.74,-10.19
1916.24,-10.19
1916.74,-10.20
1917.24,-10.20
1917.74,-10.20
1918.24,-10.21
1918.74,-10.21
1919.24,-10.22
1919.74,-10.22
1920.24,-10.23
1920.74,-10.23
1921.24,-10.24
1921.74,-10.24
1922.24,-10.25
1922.74,-10.25
1923.24,-10.26
1923.74,-10.26
1924.24,-10.27
1924.74,-10.27
1925.24,-10.28
1925.74,-10.28
1926.24,-10.28
1926.74,-10.29
1927.24,-10.29
1927.74,-10.30
1928.24,-10.30
1928.74,-10.31
1929.24,-10.31
1929.74,-10.32
1930.24,-10.32
1930.74,-10.33
1931.24,-10.33
1931.74,-10.34
1932.24,-10.34
1932.74,-10.35
1933.24,-10.35
1933.74,-10.36
1934.24,-10.36
1934.74,-10.37
1935.24,-10.37
1935.74,-10.38
1936.24,-10.38
1936.74,-10.38
1937.24,-10.39
1937.74,-10.39
1938.24,-10.40
1938.74,-10.40
1939.24,-10.41
1939.74,-10.41
1940.24,-10.42
1940.74,-10.42
1941.24,-10.43
1941.74,-10.43
1942.24,-10.44
1942.74,-10.44
1943.24,-10.45
1943.74,-10.45
1944.24,-10.46
1944.74,-10.46
1945.24,-10.47
1945.74,-10.47
1946.24,-10.48
1946.74,-10.48
1947.24,-10.49
1947.74,-10.49
1948.24,-10.49
1948.74,-10.50
1949.24,-10.50
1949.74,-10.51
1950.24,-10.51
1950.74,-10.52
1951.24,-10.52
1951.74,-10.53
1952.24,-10.53
1952.74,-10.54
1953.24,-10.54
1953.74,-10.55
1954.24,-10.55
1954.74,-10.56
1955.24,-10.56
1955.74,-10.57
1956.24,-10.57
1956.74,-10.58
1957.24,-10.58
1957.74,-10.59
1958.24,-10.59
1958.74,-10.60
1959.24,-10.60
1959.74,-10.61
1960.25,-10.61
1960.75,-10.61
1961.25,-10.62
1961.75,-10.62
1962.25,-10.63
1962.75,-10.63
1963.25,-10.64
1963.75,-10.64
1964.25,-10.65
1964.75,-10.65
1965.25,-10.66
1965.75,-10.66
1966.25,-10.67
1966.75,-10.67
1967.25,-10.68
1967.75,-10.68
1968.25,-10.69
1968.75,-10.69
1969.25,-10.70
1969.75,-10.70
1970.25,-10.71
1970.75,-10.71
1971.25,-10.72
1971.75,-10.72
1972.25,-10.73
1972.75,-10.73
1973.25,-10.74
1973.75,-10.74
1974.25,-10.75
1974.75,-10.75
1975.25,-10.75
1975.75,-10.76
1976.25,-10.76
1976.75,-10.77
1977.25,-10.77
1977.75,-10.78
1978.25,-10.78
1978.75,-10.79
1979.25,-10.79
1979.75,-10.80
1980.25,-10.80
1980.75,-10.81
1981.25,-10.81
1981.75,-10.82
1982.25,-10.82
1982.75,-10.83
1983.25,-10.83
1983.75,-10.84
1984.25,-10.84
1984.75,-10.85
1985.25,-10.85
1985.75,-10.86
1986.25,-10.86
1986.75,-10.87
1987.25,-10.87
1987.75,-10.88
1988.25,-10.88
1988.75,-10.89
1989.25,-10.89
1989.75,-10.90
1990.25,-10.90
1990.75,-10.91
1991.25,-10.91
1991.75,-10.92
1992.25,-10.92
1992.75,-10.93
1993.25,-10.93
1993.75,-10.93
1994.25,-10.94
1994.75,-10.94
1995.25,-10.95
1995.75,-10.95
1996.25,-10.96
1996.75,-10.96
1997.25,-10.97
1997.75,-10.97
1998.25,-10.98
1998.75,-10.98
1999.25,-10.99
1999.75,-10.99
2000.25,-11.00
2000.75,-11.00
2001.25,-11.01
2001.75,-11.01
2002.25,-11.02
2002.75,-11.02
2003.25,-11.03
2003.75,-11.03
2004.25,-11.04
2004.75,-11.04
2005.25,-11.05
2005.75,-11.05
2006.25,-11.06
2006.75,-11.06
2007.25,-11.07
2007.75,-11.07
2008.25,-11.08
2008.75,-11.08
2009.25,-11.09
2009.75,-11.09
2010.25,-11.10
2010.75,-11.10
2011.25,-11.11
2011.75,-11.11
2012.25,-11.12
2012.75,-11.12
2013.25,-11.13
2013.75,-11.13
2014.25,-11.14
2014.75,-11.14
2015.25,-11.15
2015.75,-11.15
2016.25,-11.16
2016.75,-11.16
2017.25,-11.17
2017.75,-11.17
2018.25,-11.18
2018.75,-11.18
2019.25,-11.19
2019.75,-11.19
2020.25,-11.20
2020.75,-11.20
2021.25,-11.21
2021.75,-11.21
2022.25,-11.22
2022.75,-11.22
2023.25,-11.22
2023.75,-11.23
2024.25,-11.23
2024.75,-11.24
2025.25,-11.24
2025.75,-11.25
2026.25,-11.25
2026.75,-11.26
2027.25,-11.26
2027.75,-11.27
2028.25,-11.27
2028.75,-11.28
2029.25,-11.28
2029.75,-11.29
2030.25,-11.29
2030.75,-11.30
2031.25,-11.30
2031.75,-11.31
2032.25,-11.31
2032.75,-11.32
2033.25,-11.32
2033.75,-11.33
2034.25,-11.33
2034.75,-11.34
2035.25,-11.34
2035.75,-11.35
2036.25,-11.35
2036.75,-11.36
2037.25,-11.36
2037.75,-11.37
2038.25,-11.37
2038.75,-11.38
2039.25,-11.38
2039.75,-11.39
2040.26,-11.39
2040.76,-11.40
2041.26,-11.40
2041.76,-11.41
2042.26,-11.41
2042.76,-11.42
2043.26,-11.42
2043.76,-11.43
2044.26,-11.43
2044.76,-11.44
2045.26,-11.44
2045.76,-11.45
2046.26,-11.45
2046.76,-11.46
2047.26,-11.46
2047.76,-11.47
2048.26,-11.47
2048.76,-11.48
2049.26,-11.48
2049.76,-11.49
2050.26,-11.49
2050.76,-11.50
2051.26,-11.50
2051.76,-11.51
2052.26,-11.51
2052.76,-11.52
2053.26,-11.52
2053.76,-11.53
2054.26,-11.53
2054.76,-11.54
2055.26,-11.54
2055.76,-11.55
2056.26,-11.55
2056.76,-11.56
2057.26,-11.56
2057.76,-11.57
2058.26,-11.57
2058.76,-11.58
2059.26,-11.58
2059.76,-11.59
2060.26,-11.59
2060.76,-11.60
2061.26,-11.60
2061.76,-11.61
2062.26,-11.61
2062.76,-11.62
2063.26,-11.62
2063.76,-11.63
2064.26,-11.63
2064.76,-11.64
2065.26,-11.64
2065.76,-11.65
2066.26,-11.65
2066.76,-11.66
2067.26,-11.66
2067.76,-11.67
2068.26,-11.67
2068.76,-11.68
2069.26,-11.69
2069.76,-11.69
2070.26,-11.70
2070.76,-11.70
2071.26,-11.71
2071.76,-11.71
2072.26,-11.72
2072.76,-11.72
2073.26,-11.73
2073.76,-11.73
2074.26,-11.74
2074.76,-11.74
2075.26,-11.75
2075.76,-11.75
2076.26,-11.76
2076.76,-11.76
2077.26,-11.77
2077.76,-11.77
2078.26,-11.78
2078.76,-11.78
2079.26,-11.79
2079.76,-11.79
2080.26,-11.80
2080.76,-11.80
2081.26,-11.81
2081.76,-11.81
2082.26,-11.82
2082.76,-11.82
2083.26,-11.83
2083.76,-11.83
2084.26,-11.84
2084.76,-11.84
2085.26,-11.85
2085.76,-11.85
2086.26,-11.86
2086.76,-11.86
2087.26,-11.87
2087.76,-11.87
2088.26,-11.88
2088.76,-11.88
2089.26,-11.89
2089.76,-11.89
2090.26,-11.90
2090.76,-11.90
2091.26,-11.91
2091.76,-11.91
2092.26,-11.92
2092.76,-11.92
2093.26,-11.93
2093.76,-11.93
2094.26,-11.94
2094.76,-11.94
2095.26,-11.95
2095.76,-11.95
2096.26,-11.96
2096.76,-11.96
2097.26,-11.97
2097.76,-11.97
2098.26,-11.98
2098.76,-11.99
2099.26,-11.99
2099.76,-12.00
2100.26,-12.00
2100.76,-12.01
2101.26,-12.01
2101.76,-12.02
2102.26,-12.02
2102.76,-12.03
2103.26,-12.03
2103.76,-12.04
2104.26,-12.04
2104.76,-12.05
2105.26,-12.05
2105.76,-12.06
2106.26,-12.06
2106.76,-12.07
2107.26,-12.07
2107.76,-12.08
2108.26,-12.08
2108.76,-12.09
2109.26,-12.09
2109.76,-12.10
2110.26,-12.10
2110.76,-12.11
2111.26,-12.11
2111.76,-12.12
2112.26,-12.12
2112.76,-12.13
2113.26,-12.13
2113.76,-12.14
2114.26,-12.14
2114.76,-12.15
2115.26,-12.15
2115.76,-12.16
2116.26,-12.17
2116.76,-12.17
2117.26,-12.18
2117.76,-12.18
2118.26,-12.19
2118.76,-12.19
2119.26,-12.20
2119.76,-12.20
2120.27,-12.21
2120.77,-12.21
2121.27,-12.22
2121.77,-12.22
2122.27,-12.23
2122.77,-12.23
2123.27,-12.24
2123.77,-12.24
2124.27,-12.25
2124.77,-12.25
2125.27,-12.26
2125.77,-12.26
2126.27,-12.27
2126.77,-12.27
2127.27,-12.28
2127.77,-12.28
2128.27,-12.29
2128.77,-12.29
2129.27,-12.30
2129.77,-12.30
2130.27,-12.31
2130.77,-12.32
2131.27,-12.32
2131.77,-12.33
2132.27,-12.33
2132.77,-12.34
2133.27,-12.34
2133.77,-12.35
2134.27,-12.35
2134.77,-12.36
2135.27,-12.36
2135.77,-12.37
2136.27,-12.37
2136.77,-12.38
2137.27,-12.38
2137.77,-12.39
2138.27,-12.39
2138.77,-12.40
2139.27,-12.40
2139.77,-12.41
2140.27,-12.41
2140.77,-12.42
2141.27,-12.42
2141.77,-12.43
2142.27,-12.44
2142.77,-12.44
2143.27,-12.45
2143.77,-12.45
2144.27,-12.46
2144.77,-12.46
2145.27,-12.47
2145.77,-12.47
2146.27,-12.48
2146.77,-12.48
2147.27,-12.49
2147.77,-12.49
2148.27,-12.50
2148.77,-12.50
2149.27,-12.51
2149.77,-12.51
2150.27,-12.52
2150.77,-12.52
2151.27,-12.53
2151.77,-12.53
2152.27,-12.54
2152.77,-12.55
2153.27,-12.55
2153.77,-12.56
2154.27,-12.56
2154.77,-12.57
2155.27,-12.57
2155.77,-12.58
2156.27,-12.58
2156.77,-12.59
2157.27,-12.59
2157.77,-12.60
2158.27,-12.60
2158.77,-12.61
2159.27,-12.61
2159.77,-12.62
2160.27,-12.62
2160.77,-12.63
2161.27,-12.63
2161.77,-12.64
2162.27,-12.65
2162.77,-12.65
2163.27,-12.66
2163.77,-12.66
2164.27,-12.67
2164.77,-12.67
2165.27,-12.68
2165.77,-12.68
2166.27,-12.69
2166.77,-12.69
2167.27,-12.70
2167.77,-12.70
2168.27,-12.71
2168.77,-12.71
2169.27,-12.72
2169.77,-12.72
2170.27,-12.73
2170.77,-12.74
2171.27,-12.74
2171.77,-12.75
2172.27,-12.75
2172.77,-12.76
2173.27,-12.76
2173.77,-12.77
2174.27,-12.77
2174.77,-12.78
2175.27,-12.78
2175.77,-12.79
2176.27,-12.79
2176.77,-12.80
2177.27,-12.80
2177.77,-12.81
2178.27,-12.81
2178.77,-12.82
2179.27,-12.83
2179.77,-12.83
2180.27,-12.84
2180.77,-12.84
2181.27,-12.85
2181.77,-12.85
2182.27,-12.86
2182.77,-12.86
2183.27,-12.87
2183.77,-12.87
2184.27,-12.88
2184.77,-12.88
2185.27,-12.89
2185.77,-12.89
2186.27,-12.90
2186.77,-12.91
2187.27,-12.91
2187.77,-12.92
2188.27,-12.92
2188.77,-12.93
2189.27,-12.93
2189.77,-12.94
2190.27,-12.94
2190.77,-12.95
2191.27,-12.95
2191.77,-12.96
2192.27,-12.96
2192.77,-12.97
2193.27,-12.97
2193.77,-12.98
2194.27,-12.99
2194.77,-12.99
2195.27,-13.00
2195.77,-13.00
2196.27,-13.01
2196.77,-13.01
2197.27,-13.02
2197.77,-13.02
2198.27,-13.03
2198.77,-13.03
2199.27,-13.04
2199.77,-13.04
2200.28,-13.05
2200.78,-13.06
2201.28,-13.06
2201.78,-13.07
2202.28,-13.07
2202.78,-13.08
2203.28,-13.08
2203.78,-13.09
2204.28,-13.09
2204.78,-13.10
2205.28,-13.10
2205.78,-13.11
2206.28,-13.11
2206.78,-13.12
2207.28,-13.13
2207.78,-13.13
2208.28,-13.14
2208.78,-13.14
2209.28,-13.15
2209.78,-13.15
2210.28,-13.16
2210.78,-13.16
2211.28,-13.17
2211.78,-13.17
2212.28,-13.18
2212.78,-13.18
2213.28,-13.19
2213.78,-13.20
2214.28,-13.20
2214.78,-13.21
2215.28,-13.21
2215.78,-13.22
2216.28,-13.22
2216.78,-13.23
2217.28,-13.23
2217.78,-13.24
2218.28,-13.24
2218.78,-13.25
2219.28,-13.25
2219.78,-13.26
2220.28,-13.27
2220.78,-13.27
2221.28,-13.28
2221.78,-13.28
2222.28,-13.29
2222.78,-13.29
2223.28,-13.30
2223.78,-13.30
2224.28,-13.31
2224.78,-13.31
2225.28,-13.32
2225.78,-13.33
2226.28,-13.33
2226.78,-13.34
2227.28,-13.34
2227.78,-13.35
2228.28,-13.35
2228.78,-13.36
2229.28,-13.36
2229.78,-13.37
2230.28,-13.37
2230.78,-13.38
2231.28,-13.39
2231.78,-13.39
2232.28,-13.40
2232.78,-13.40
2233.28,-13.41
2233.78,-13.41
2234.28,-13.42
2234.78,-13.42
2235.28,-13.43
2235.78,-13.43
2236.28,-13.44
2236.78,-13.45
2237.28,-13.45
2237.78,-13.46
2238.28,-13.46
2238.78,-13.47
2239.28,-13.47
2239.78,-13.48
2240.28,-13.48
2240.78,-13.49
2241.28,-13.49
2241.78,-13.50
2242.28,-13.51
2242.78,-13.51
2243.28,-13.52
2243.78,-13.52
2244.28,-13.53
2244.78,-13.53
2245.28,-13.54
2245.78,-13.54
2246.28,-13.55
2246.78,-13.55
2247.28,-13.56
2247.78,-13.57
2248.28,-13.57
2248.78,-13.58
2249.28,-13.58
2249.78,-13.59
2250.28,-13.59
2250.78,-13.60
2251.28,-13.60
2251.78,-13.61
2252.28,-13.62
2252.78,-13.62
2253.28,-13.63
2253.78,-13.63
2254.28,-13.64
2254.78,-13.64
2255.28,-13.65
2255.78,-13.65
2256.28,-13.66
2256.78,-13.66
2257.28,-13.67
2257.78,-13.68
2258.28,-13.68
2258.78,-13.69
2259.28,-13.69
2259.78,-13.70
2260.28,-13.70
2260.78,-13.71
2261.28,-13.71
2261.78,-13.72
2262.28,-13.73
2262.78,-13.73
2263.28,-13.74
2263.78,-13.74
2264.28,-13.75
2264.78,-13.75
2265.28,-13.76
2265.78,-13.76
2266.28,-13.77
2266.78,-13.78
2267.28,-13.78
2267.78,-13.79
2268.28,-13.79
2268.78,-13.80
2269.28,-13.80
2269.78,-13.81
2270.28,-13.81
2270.78,-13.82
2271.28,-13.83
2271.78,-13.83
2272.28,-13.84
2272.78,-13.84
2273.28,-13.85
2273.78,-13.85
2274.28,-13.86
2274.78,-13.86
2275.28,-13.87
2275.78,-13.88
2276.28,-13.88
2276.78,-13.89
2277.28,-13.89
2277.78,-13.90
2278.28,-13.90
2278.78,-13.91
2279.28,-13.91
2279.78,-13.92
2280.29,-13.93
2280.79,-13.93
2281.29,-13.94
2281.79,-13.94
2282.29,-13.95
2282.79,-13.95
2283.29,-13.96
2283.79,-13.96
2284.29,-13.97
2284.79,-13.98
2285.29,-13.98
2285.79,-13.99
2286.29,-13.99
2286.79,-14.00
2287.29,-14.00
2287.79,-14.01
2288.29,-14.02
2288.79,-14.02
2289.29,-14.03
2289.79,-14.03
2290.29,-14.04
2290.79,-14.04
2291.29,-14.05
2291.79,-14.05
2292.29,-14.06
2292.79,-14.07
2293.29,-14.07
2293.79,-14.08
2294.29,-14.08
2294.79,-14.09
2295.29,-14.09
2295.79,-14.10
2296.29,-14.11
2296.79,-14.11
2297.29,-14.12
2297.79,-14.12
2298.29,-14.13
2298.79,-14.13
2299.29,-14.14
2299.79,-14.14
2300.29,-14.15
2300.79,-14.16
2301.29,-14.16
2301.79,-14.17
2302.29,-14.17
2302.79,-14.18
2303.29,-14.18
2303.79,-14.19
2304.29,-14.20
2304.79,-14.20
2305.29,-14.21
2305.79,-14.21
2306.29,-14.22
2306.79,-14.22
2307.29,-14.23
2307.79,-14.24
2308.29,-14.24
2308.79,-14.25
2309.29,-14.25
2309.79,-14.26
2310.29,-14.26
2310.79,-14.27
2311.29,-14.27
2311.79,-14.28
2312.29,-14.29
2312.79,-14.29
2313.29,-14.30
2313.79,-14.30
2314.29,-14.31
2314.79,-14.31
2315.29,-14.32
2315.79,-14.33
2316.29,-14.33
2316.79,-14.34
2317.29,-14.34
2317.79,-14.35
2318.29,-14.35
2318.79,-14.36
2319.29,-14.37
2319.79,-14.37
2320.29,-14.38
2320.79,-14.38
2321.29,-14.39
2321.79,-14.39
2322.29,-14.40
2322.79,-14.41
2323.29,-14.41
2323.79,-14.42
2324.29,-14.42
2324.79,-14.43
2325.29,-14.43
2325.79,-14.44
2326.29,-14.45
2326.79,-14.45
2327.29,-14.46
2327.79,-14.46
2328.29,-14.47
2328.79,-14.47
2329.29,-14.48
2329.79,-14.49
2330.29,-14.49
2330.79,-14.50
2331.29,-14.50
2331.79,-14.51
2332.29,-14.51
2332.79,-14.52
2333.29,-14.53
2333.79,-14.53
2334.29,-14.54
2334.79,-14.54
2335.29,-14.55
2335.79,-14.55
2336.29,-14.56
2336.79,-14.57
2337.29,-14.57
2337.79,-14.58
2338.29,-14.58
2338.79,-14.59
2339.29,-14.59
2339.79,-14.60
2340.29,-14.61
2340.79,-14.61
2341.29,-14.62
2341.79,-14.62
2342.29,-14.63
2342.79,-14.64
2343.29,-14.64
2343.79,-14.65
2344.29,-14.65
2344.79,-14.66
2345.29,-14.66
2345.79,-14.67
2346.29,-14.68
2346.79,-14.68
2347.29,-14.69
2347.79,-14.69
2348.29,-14.70
2348.79,-14.70
2349.29,-14.71
2349.79,-14.72
2350.29,-14.72
2350.79,-14.73
2351.29,-14.73
2351.79,-14.74
2352.29,-14.74
2352.79,-14.75
2353.29,-14.76
2353.79,-14.76
2354.29,-14.77
2354.79,-14.77
2355.29,-14.78
2355.79,-14.79
2356.29,-14.79
2356.79,-14.80
2357.29,-14.80
2357.79,-14.81
2358.29,-14.81
2358.79,-14.82
2359.29,-14.83
2359.79,-14.83
2360.30,-14.84
2360.80,-14.84
2361.30,-14.85
2361.80,-14.86
2362.30,-14.86
2362.80,-14.87
2363.30,-14.87
2363.80,-14.88
2364.30,-14.88
2364.80,-14.89
2365.30,-14.90
2365.80,-14.90
2366.30,-14.91
2366.80,-14.91
2367.30,-14.92
2367.80,-14.93
2368.30,-14.93
2368.80,-14.94
2369.30,-14.94
2369.80,-14.95
2370.30,-14.95
2370.80,-14.96
2371.30,-14.97
2371.80,-14.97
2372.30,-14.98
2372.80,-14.98
2373.30,-14.99
2373.80,-15.00
2374.30,-15.00
2374.80,-15.01
2375.30,-15.01
2375.80,-15.02
2376.30,-15.02
2376.80,-15.03
2377.30,-15.04
2377.80,-15.04
2378.30,-15.05
2378.80,-15.05
2379.30,-15.06
2379.80,-15.07
2380.30,-15.07
2380.80,-15.08
2381.30,-15.08
2381.80,-15.09
2382.30,-15.10
2382.80,-15.10
2383.30,-15.11
2383.80,-15.11
2384.30,-15.12
2384.80,-15.12
2385.30,-15.13
2385.80,-15.14
2386.30,-15.14
2386.80,-15.15
2387.30,-15.15
2387.80,-15.16
2388.30,-15.17
2388.80,-15.17
2389.30,-15.18
2389.80,-15.18
2390.30,-15.19
2390.80,-15.20
2391.30,-15.20
2391.80,-15.21
2392.30,-15.21
2392.80,-15.22
2393.30,-15.23
2393.80,-15.23
2394.30,-15.24
2394.80,-15.24
2395.30,-15.25
2395.80,-15.25
2396.30,-15.26
2396.80,-15.27
2397.30,-15.27
2397.80,-15.28
2398.30,-15.28
2398.80,-15.29
2399.30,-15.30
2399.80,-15.30
2400.30,-15.31
2400.80,-15.31
2401.30,-15.32
2401.80,-15.33
2402.30,-15.33
2402.80,-15.34
2403.30,-15.34
2403.80,-15.35
2404.30,-15.36
2404.80,-15.36
2405.30,-15.37
2405.80,-15.37
2406.30,-15.38
2406.80,-15.39
2407.30,-15.39
2407.80,-15.40
2408.30,-15.40
2408.80,-15.41
2409.30,-15.42
2409.80,-15.42
2410.30,-15.43
2410.80,-15.43
2411.30,-15.44
2411.80,-15.45
2412.30,-15.45
2412.80,-15.46
2413.30,-15.46
2413.80,-15.47
2414.30,-15.48
2414.80,-15.48
2415.30,-15.49
2415.80,-15.49
2416.30,-15.50
2416.80,-15.51
2417.30,-15.51
2417.80,-15.52
2418.30,-15.52
2418.80,-15.53
2419.30,-15.54
2419.80,-15.54
2420.30,-15.55
2420.80,-15.55
2421.30,-15.56
2421.80,-15.57
2422.30,-15.57
2422.80,-15.58
2423.30,-15.58
2423.80,-15.59
2424.30,-15.60
2424.80,-15.60
2425.30,-15.61
2425.80,-15.61
2426.30,-15.62
2426.80,-15.63
2427.30,-15.63
2427.80,-15.64
2428.30,-15.64
2428.80,-15.65
2429.30,-15.66
2429.80,-15.66
2430.30,-15.67
2430.80,-15.67
2431.30,-15.68
2431.80,-15.69
2432.30,-15.69
2432.80,-15.70
2433.30,-15.70
2433.80,-15.71
2434.30,-15.72
2434.80,-15.72
2435.30,-15.73
2435.80,-15.73
2436.30,-15.74
2436.80,-15.75
2437.30,-15.75
2437.80,-15.76
2438.30,-15.76
2438.80,-15.77
2439.30,-15.78
2439.80,-15.78
2440.31,-15.79
2440.81,-15.79
2441.31,-15.80
2441.81,-15.81
2442.31,-15.81
2442.81,-15.82
2443.31,-15.83
2443.81,-15.83
2444.31,-15.84
2444.81,-15.84
2445.31,-15.85
2445.81,-15.86
2446.31,-15.86
2446.81,-15.87
2447.31,-15.87
2447.81,-15.88
2448.31,-15.89
2448.81,-15.89
2449.31,-15.90
2449.81,-15.90
2450.31,-15.91
2450.81,-15.92
2451.31,-15.92
2451.81,-15.93
2452.31,-15.94
2452.81,-15.94
2453.31,-15.95
2453.81,-15.95
2454.31,-15.96
2454.81,-15.97
2455.31,-15.97
2455.81,-15.98
2456.31,-15.98
2456.81,-15.99
2457.31,-16.00
2457.81,-16.00
2458.31,-16.01
2458.81,-16.01
2459.31,-16.02
2459.81,-16.03
2460.31,-16.03
2460.81,-16.04
2461.31,-16.05
2461.81,-16.05
2462.31,-16.06
2462.81,-16.06
2463.31,-16.07
2463.81,-16.08
2464.31,-16.08
2464.81,-16.09
2465.31,-16.09
2465.81,-16.10
2466.31,-16.11
2466.81,-16.11
2467.31,-16.12
2467.81,-16.13
2468.31,-16.13
2468.81,-16.14
2469.31,-16.14
2469.81,-16.15
2470.31,-16.16
2470.81,-16.16
2471.31,-16.17
2471.81,-16.17
2472.31,-16.18
2472.81,-16.19
2473.31,-16.19
2473.81,-16.20
2474.31,-16.21
2474.81,-16.21
2475.31,-16.22
2475.81,-16.22
2476.31,-16.23
2476.81,-16.24
2477.31,-16.24
2477.81,-16.25
2478.31,-16.26
2478.81,-16.26
2479.31,-16.27
2479.81,-16.27
2480.31,-16.28
2480.81,-16.29
2481.31,-16.29
2481.81,-16.30
2482.31,-16.31
2482.81,-16.31
2483.31,-16.32
2483.81,-16.32
2484.31,-16.33
2484.81,-16.34
2485.31,-16.34
2485.81,-16.35
2486.31,-16.35
2486.81,-16.36
2487.31,-16.37
2487.81,-16.37
2488.31,-16.38
2488.81,-16.39
2489.31,-16.39
2489.81,-16.40
2490.31,-16.40
2490.81,-16.41
2491.31,-16.42
2491.81,-16.42
2492.31,-16.43
2492.81,-16.44
2493.31,-16.44
2493.81,-16.45
2494.31,-16.45
2494.81,-16.46
2495.31,-16.47
2495.81,-16.47
2496.31,-16.48
2496.81,-16.49
2497.31,-16.49
2497.81,-16.50
2498.31,-16.51
2498.81,-16.51
2499.31,-16.52
2499.81,-16.52
2500.31,-16.53
2500.81,-16.54
2501.31,-16.54
2501.81,-16.55
2502.31,-16.56
2502.81,-16.56
2503.31,-16.57
2503.81,-16.57
2504.31,-16.58
2504.81,-16.59
2505.31,-16.59
2505.81,-16.60
2506.31,-16.61
2506.81,-16.61
2507.31,-16.62
2507.81,-16.62
2508.31,-16.63
2508.81,-16.64
2509.31,-16.64
2509.81,-16.65
2510.31,-16.66
2510.81,-16.66
2511.31,-16.67
2511.81,-16.68
2512.31,-16.68
2512.81,-16.69
2513.31,-16.69
2513.81,-16.70
2514.31,-16.71
2514.81,-16.71
2515.31,-16.72
2515.81,-16.73
2516.31,-16.73
2516.81,-16.74
2517.31,-16.74
2517.81,-16.75
2518.31,-16.76
2518.81,-16.76
2519.31,-16.77
2519.81,-16.78
2520.32,-16.78
2520.82,-16.79
2521.32,-16.80
2521.82,-16.80
2522.32,-16.81
2522.82,-16.81
2523.32,-16.82
2523.82,-16.83
2524.32,-16.83
2524.82,-16.84
2525.32,-16.85
2525.82,-16.85
2526.32,-16.86
2526.82,-16.87
2527.32,-16.87
2527.82,-16.88
2528.32,-16.89
2528.82,-16.89
2529.32,-16.90
2529.82,-16.90
2530.32,-16.91
2530.82,-16.92
2531.32,-16.92
2531.82,-16.93
2532.32,-16.94
2532.82,-16.94
2533.32,-16.95
2533.82,-16.96
2534.32,-16.96
2534.82,-16.97
2535.32,-16.97
2535.82,-16.98
2536.32,-16.99
2536.82,-16.99
2537.32,-17.00
2537.82,-17.01
2538.32,-17.01
2538.82,-17.02
2539.32,-17.03
2539.82,-17.03
2540.32,-17.04
2540.82,-17.05
2541.32,-17.05
2541.82,-17.06
2542.32,-17.06
2542.82,-17.07
2543.32,-17.08
2543.82,-17.08
2544.32,-17.09
2544.82,-17.10
2545.32,-17.10
2545.82,-17.11
2546.32,-17.12
2546.82,-17.12
2547.32,-17.13
2547.82,-17.14
2548.32,-17.14
2548.82,-17.15
2549.32,-17.15
2549.82,-17.16
2550.32,-17.17
2550.82,-17.17
2551.32,-17.18
2551.82,-17.19
2552.32,-17.19
2552.82,-17.20
2553.32,-17.21
2553.82,-17.21
2554.32,-17.22
2554.82,-17.23
2555.32,-17.23
2555.82,-17.24
2556.32,-17.25
2556.82,-17.25
2557.32,-17.26
2557.82,-17.27
2558.32,-17.27
2558.82,-17.28
2559.32,-17.28
2559.82,-17.29
2560.32,-17.30
2560.82,-17.30
2561.32,-17.31
2561.82,-17.32
2562.32,-17.32
2562.82,-17.33
2563.32,-17.34
2563.82,-17.34
2564.32,-17.35
2564.82,-17.36
2565.32,-17.36
2565.82,-17.37
2566.32,-17.38
2566.82,-17.38
2567.32,-17.39
2567.82,-17.40
2568.32,-17.40
2568.82,-17.41
2569.32,-17.42
2569.82,-17.42
2570.32,-17.43
2570.82,-17.43
2571.32,-17.44
2571.82,-17.45
2572.32,-17.45
2572.82,-17.46
2573.32,-17.47
2573.82,-17.47
2574.32,-17.48
2574.82,-17.49
2575.32,-17.49
2575.82,-17.50
2576.32,-17.51
2576.82,-17.51
2577.32,-17.52
2577.82,-17.53
2578.32,-17.53
2578.82,-17.54
2579.32,-17.55
2579.82,-17.55
2580.32,-17.56
2580.82,-17.57
2581.32,-17.57
2581.82,-17.58
2582.32,-17.59
2582.82,-17.59
2583.32,-17.60
2583.82,-17.61
2584.32,-17.61
2584.82,-17.62
2585.32,-17.63
2585.82,-17.63
2586.32,-17.64
2586.82,-17.65
2587.32,-17.65
2587.82,-17.66
2588.32,-17.67
2588.82,-17.67
2589.32,-17.68
2589.82,-17.69
2590.32,-17.69
2590.82,-17.70
2591.32,-17.71
2591.82,-17.71
2592.32,-17.72
2592.82,-17.73
2593.32,-17.73
2593.82,-17.74
2594.32,-17.75
2594.82,-17.75
2595.32,-17.76
2595.82,-17.77
2596.32,-17.77
2596.82,-17.78
2597.32,-17.79
2597.82,-17.79
2598.32,-17.80
2598.82,-17.81
2599.32,-17.81
2599.82,-17.82
2600.33,-17.83
2600.83,-17.83
2601.33,-17.84
2601.83,-17.85
2602.33,-17.85
2602.83,-17.86
2603.33,-17.87
2603.83,-17.87
2604.33,-17.88
2604.83,-17.89
2605.33,-17.89
2605.83,-17.90
2606.33,-17.91
2606.83,-17.91
2607.33,-17.92
2607.83,-17.93
2608.33,-17.93
2608.83,-17.94
2609.33,-17.95
2609.83,-17.95
2610.33,-17.96
2610.83,-17.97
2611.33,-17.97
2611.83,-17.98
2612.33,-17.99
2612.83,-17.99
2613.33,-18.00
2613.83,-18.01
2614.33,-18.01
2614.83,-18.02
2615.33,-18.03
2615.83,-18.03
2616.33,-18.04
2616.83,-18.05
2617.33,-18.05
2617.83,-18.06
2618.33,-18.07
2618.83,-18.07
2619.33,-18.08
2619.83,-18.09
2620.33,-18.09
2620.83,-18.10
2621.33,-18.11
2621.83,-18.11
2622.33,-18.12
2622.83,-18.13
2623.33,-18.13
2623.83,-18.14
2624.33,-18.15
2624.83,-18.15
2625.33,-18.16
2625.83,-18.17
2626.33,-18.18
2626.83,-18.18
2627.33,-18.19
2627.83,-18.20
2628.33,-18.20
2628.83,-18.21
2629.33,-18.22
2629.83,-18.22
2630.33,-18.23
2630.83,-18.24
2631.33,-18.24
2631.83,-18.25
2632.33,-18.26
2632.83,-18.26
2633.33,-18.27
2633.83,-18.28
2634.33,-18.28
2634.83,-18.29
2635.33,-18.30
2635.83,-18.30
2636.33,-18.31
2636.83,-18.32
2637.33,-18.32
2637.83,-18.33
2638.33,-18.34
2638.83,-18.35
2639.33,-18.35
2639.83,-18.36
2640.33,-18.37
2640.83,-18.37
2641.33,-18.38
2641.83,-18.39
2642.33,-18.39
2642.83,-18.40
2643.33,-18.41
2643.83,-18.41
2644.33,-18.42
2644.83,-18.43
2645.33,-18.43
2645.83,-18.44
2646.33,-18.45
2646.83,-18.46
2647.33,-18.46
2647.83,-18.47
2648.33,-18.48
2648.83,-18.48
2649.33,-18.49
2649.83,-18.50
2650.33,-18.50
2650.83,-18.51
2651.33,-18.52
2651.83,-18.52
2652.33,-18.53
2652.83,-18.54
2653.33,-18.54
2653.83,-18.55
2654.33,-18.56
2654.83,-18.57
2655.33,-18.57
2655.83,-18.58
2656.33,-18.59
2656.83,-18.59
2657.33,-18.60
2657.83,-18.61
2658.33,-18.61
2658.83,-18.62
2659.33,-18.63
2659.83,-18.63
2660.33,-18.64
2660.83,-18.65
2661.33,-18.66
2661.83,-18.66
2662.33,-18.67
2662.83,-18.68
2663.33,-18.68
2663.83,-18.69
2664.33,-18.70
2664.83,-18.70
2665.33,-18.71
2665.83,-18.72
2666.33,-18.73
2666.83,-18.73
2667.33,-18.74
2667.83,-18.75
2668.33,-18.75
2668.83,-18.76
2669.33,-18.77
2669.83,-18.77
2670.33,-18.78
2670.83,-18.79
2671.33,-18.79
2671.83,-18.80
2672.33,-18.81
2672.83,-18.82
2673.33,-18.82
2673.83,-18.83
2674.33,-18.84
2674.83,-18.84
2675.33,-18.85
2675.83,-18.86
2676.33,-18.86
2676.83,-18.87
2677.33,-18.88
2677.83,-18.89
2678.33,-18.89
2678.83,-18.90
2679.33,-18.91
2679.83,-18.91
2680.34,-18.92
2680.84,-18.93
2681.34,-18.94
2681.84,-18.94
2682.34,-18.95
2682.84,-18.96
2683.34,-18.96
2683.84,-18.97
2684.34,-18.98
2684.84,-18.98
2685.34,-18.99
2685.84,-19.00
2686.34,-19.01
2686.84,-19.01
2687.34,-19.02
2687.84,-19.03
2688.34,-19.03
2688.84,-19.04
2689.34,-19.05
2689.84,-19.05
2690.34,-19.06
2690.84,-19.07
2691.34,-19.08
2691.84,-19.08
2692.34,-19.09
2692.84,-19.10
2693.34,-19.10
2693.84,-19.11
2694.34,-19.12
2694.84,-19.13
2695.34,-19.13
2695.84,-19.14
2696.34,-19.15
2696.84,-19.15
2697.34,-19.16
2697.84,-19.17
2698.34,-19.18
2698.84,-19.18
2699.34,-19.19
2699.84,-19.20
2700.34,-19.20
2700.84,-19.21
2701.34,-19.22
2701.84,-19.23
2702.34,-19.23
2702.84,-19.24
2703.34,-19.25
2703.84,-19.25
2704.34,-19.26
2704.84,-19.27
2705.34,-19.28
2705.84,-19.28
2706.34,-19.29
2706.84,-19.30
2707.34,-19.30
2707.84,-19.31
2708.34,-19.32
2708.84,-19.33
2709.34,-19.33
2709.84,-19.34
2710.34,-19.35
2710.84,-19.35
2711.34,-19.36
2711.84,-19.37
2712.34,-19.38
2712.84,-19.38
2713.34,-19.39
2713.84,-19.40
2714.34,-19.40
2714.84,-19.41
2715.34,-19.42
2715.84,-19.43
2716.34,-19.43
2716.84,-19.44
2717.34,-19.45
2717.84,-19.46
2718.34,-19.46
2718.84,-19.47
2719.34,-19.48
2719.84,-19.48
2720.34,-19.49
2720.84,-19.50
2721.34,-19.51
2721.84,-19.51
2722.34,-19.52
2722.84,-19.53
2723.34,-19.53
2723.84,-19.54
2724.34,-19.55
2724.84,-19.56
2725.34,-19.56
2725.84,-19.57
2726.34,-19.58
2726.84,-19.59
2727.34,-19.59
2727.84,-19.60
2728.34,-19.61
2728.84,-19.61
2729.34,-19.62
2729.84,-19.63
2730.34,-19.64
2730.84,-19.64
2731.34,-19.65
2731.84,-19.66
2732.34,-19.67
2732.84,-19.67
2733.34,-19.68
2733.84,-19.69
2734.34,-19.69
2734.84,-19.70
2735.34,-19.71
2735.84,-19.72
2736.34,-19.72
2736.84,-19.73
2737.34,-19.74
2737.84,-19.75
2738.34,-19.75
2738.84,-19.76
2739.34,-19.77
2739.84,-19.77
2740.34,-19.78
2740.84,-19.79
2741.34,-19.80
2741.84,-19.80
2742.34,-19.81
2742.84,-19.82
2743.34,-19.83
2743.84,-19.83
2744.34,-19.84
2744.84,-19.85
2745.34,-19.86
2745.84,-19.86
2746.34,-19.87
2746.84,-19.88
2747.34,-19.88
2747.84,-19.89
2748.34,-19.90
2748.84,-19.91
2749.34,-19.91
2749.84,-19.92
2750.34,-19.93
2750.84,-19.94
2751.34,-19.94
2751.84,-19.95
2752.34,-19.96
2752.84,-19.97
2753.34,-19.97
2753.84,-19.98
2754.34,-19.99
2754.84,-20.00
2755.34,-20.00
2755.84,-20.01
2756.34,-20.02
2756.84,-20.03
2757.34,-20.03
2757.84,-20.04
2758.34,-20.05
2758.84,-20.06
2759.34,-20.06
2759.84,-20.07
2760.35,-20.08
2760.85,-20.08
2761.35,-20.09
2761.85,-20.10
2762.35,-20.11
2762.85,-20.11
2763.35,-20.12
2763.85,-20.13
2764.35,-20.14
2764.85,-20.14
2765.35,-20.15
2765.85,-20.16
2766.35,-20.17
2766.85,-20.17
2767.35,-20.18
2767.85,-20.19
2768.35,-20.20
2768.85,-20.20
2769.35,-20.21
2769.85,-20.22
2770.35,-20.23
2770.85,-20.23
2771.35,-20.24
2771.85,-20.25
2772.35,-20.26
2772.85,-20.26
2773.35,-20.27
2773.85,-20.28
2774.35,-20.29
2774.85,-20.29
2775.35,-20.30
2775.85,-20.31
2776.35,-20.32
2776.85,-20.32
2777.35,-20.33
2777.85,-20.34
2778.35,-20.35
2778.85,-20.35
2779.35,-20.36
2779.85,-20.37
2780.35,-20.38
2780.85,-20.38
2781.35,-20.39
2781.85,-20.40
2782.35,-20.41
2782.85,-20.41
2783.35,-20.42
2783.85,-20.43
2784.35,-20.44
2784.85,-20.44
2785.35,-20.45
2785.85,-20.46
2786.35,-20.47
2786.85,-20.48
2787.35,-20.48
2787.85,-20.49
2788.35,-20.50
2788.85,-20.51
2789.35,-20.51
2789.85,-20.52
2790.35,-20.53
2790.85,-20.54
2791.35,-20.54
2791.85,-20.55
2792.35,-20.56
2792.85,-20.57
2793.35,-20.57
2793.85,-20.58
2794.35,-20.59
2794.85,-20.60
2795.35,-20.60
2795.85,-20.61
2796.35,-20.62
2796.85,-20.63
2797.35,-20.63
2797.85,-20.64
2798.35,-20.65
2798.85,-20.66
2799.35,-20.67
2799.85,-20.67
2800.35,-20.68
2800.85,-20.69
2801.35,-20.70
2801.85,-20.70
2802.35,-20.71
2802.85,-20.72
2803.35,-20.73
2803.85,-20.73
2804.35,-20.74
2804.85,-20.75
2805.35,-20.76
2805.85,-20.77
2806.35,-20.77
2806.85,-20.78
2807.35,-20.79
2807.85,-20.80
2808.35,-20.80
2808.85,-20.81
2809.35,-20.82
2809.85,-20.83
2810.35,-20.83
2810.85,-20.84
2811.35,-20.85
2811.85,-20.86
2812.35,-20.87
2812.85,-20.87
2813.35,-20.88
2813.85,-20.89
2814.35,-20.90
2814.85,-20.90
2815.35,-20.91
2815.85,-20.92
2816.35,-20.93
2816.85,-20.93
2817.35,-20.94
2817.85,-20.95
2818.35,-20.96
2818.85,-20.97
2819.35,-20.97
2819.85,-20.98
2820.35,-20.99
2820.85,-21.00
2821.35,-21.00
2821.85,-21.01
2822.35,-21.02
2822.85,-21.03
2823.35,-21.04
2823.85,-21.04
2824.35,-21.05
2824.85,-21.06
2825.35,-21.07
2825.85,-21.07
2826.35,-21.08
2826.85,-21.09
2827.35,-21.10
2827.85,-21.11
2828.35,-21.11
2828.85,-21.12
2829.35,-21.13
2829.85,-21.14
2830.35,-21.15
2830.85,-21.15
2831.35,-21.16
2831.85,-21.17
2832.35,-21.18
2832.85,-21.18
2833.35,-21.19
2833.85,-21.20
2834.35,-21.21
2834.85,-21.22
2835.35,-21.22
2835.85,-21.23
2836.35,-21.24
2836.85,-21.25
2837.35,-21.26
2837.85,-21.26
2838.35,-21.27
2838.85,-21.28
2839.35,-21.29
2839.85,-21.29
2840.36,-21.30
2840.86,-21.31
2841.36,-21.32
2841.86,-21.33
2842.36,-21.33
2842.86,-21.34
2843.36,-21.35
2843.86,-21.36
2844.36,-21.37
2844.86,-21.37
2845.36,-21.38
2845.86,-21.39
2846.36,-21.40
2846.86,-21.41
2847.36,-21.41
2847.86,-21.42
2848.36,-21.43
2848.86,-21.44
2849.36,-21.45
2849.86,-21.45
2850.36,-21.46
2850.86,-21.47
2851.36,-21.48
2851.86,-21.48
2852.36,-21.49
2852.86,-21.50
2853.36,-21.51
2853.86,-21.52
2854.36,-21.52
2854.86,-21.53
2855.36,-21.54
2855.86,-21.55
2856.36,-21.56
2856.86,-21.56
2857.36,-21.57
2857.86,-21.58
2858.36,-21.59
2858.86,-21.60
2859.36,-21.60
2859.86,-21.61
2860.36,-21.62
2860.86,-21.63
2861.36,-21.64
2861.86,-21.64
2862.36,-21.65
2862.86,-21.66
2863.36,-21.67
2863.86,-21.68
2864.36,-21.69
2864.86,-21.69
2865.36,-21.70
2865.86,-21.71
2866.36,-21.72
2866.86,-21.73
2867.36,-21.73
2867.86,-21.74
2868.36,-21.75
2868.86,-21.76
2869.36,-21.77
2869.86,-21.77
2870.36,-21.78
2870.86,-21.79
2871.36,-21.80
2871.86,-21.81
2872.36,-21.81
2872.86,-21.82
2873.36,-21.83
2873.86,-21.84
2874.36,-21.85
2874.86,-21.85
2875.36,-21.86
2875.86,-21.87
2876.36,-21.88
2876.86,-21.89
2877.36,-21.90
2877.86,-21.90
2878.36,-21.91
2878.86,-21.92
2879.36,-21.93
2879.86,-21.94
2880.36,-21.94
2880.86,-21.95
2881.36,-21.96
2881.86,-21.97
2882.36,-21.98
2882.86,-21.98
2883.36,-21.99
2883.86,-22.00
2884.36,-22.01
2884.86,-22.02
2885.36,-22.03
2885.86,-22.03
2886.36,-22.04
2886.86,-22.05
2887.36,-22.06
2887.86,-22.07
2888.36,-22.07
2888.86,-22.08
2889.36,-22.09
2889.86,-22.10
2890.36,-22.11
2890.86,-22.12
2891.36,-22.12
2891.86,-22.13
2892.36,-22.14
2892.86,-22.15
2893.36,-22.16
2893.86,-22.17
2894.36,-22.17
2894.86,-22.18
2895.36,-22.19
2895.86,-22.20
2896.36,-22.21
2896.86,-22.21
2897.36,-22.22
2897.86,-22.23
2898.36,-22.24
2898.86,-22.25
2899.36,-22.26
2899.86,-22.26
2900.36,-22.27
2900.86,-22.28
2901.36,-22.29
2901.86,-22.30
2902.36,-22.31
2902.86,-22.31
2903.36,-22.32
2903.86,-22.33
2904.36,-22.34
2904.86,-22.35
2905.36,-22.36
2905.86,-22.36
2906.36,-22.37
2906.86,-22.38
2907.36,-22.39
2907.86,-22.40
2908.36,-22.41
2908.86,-22.41
2909.36,-22.42
2909.86,-22.43
2910.36,-22.44
2910.86,-22.45
2911.36,-22.46
2911.86,-22.46
2912.36,-22.47
2912.86,-22.48
2913.36,-22.49
2913.86,-22.50
2914.36,-22.51
2914.86,-22.51
2915.36,-22.52
2915.86,-22.53
2916.36,-22.54
2916.86,-22.55
2917.36,-22.56
2917.86,-22.56
2918.36,-22.57
2918.86,-22.58
2919.36,-22.59
2919.86,-22.60
2920.37,-22.61
2920.87,-22.62
2921.37,-22.62
2921.87,-22.63
2922.37,-22.64
2922.87,-22.65
2923.37,-22.66
2923.87,-22.67
2924.37,-22.67
2924.87,-22.68
2925.37,-22.69
2925.87,-22.70
2926.37,-22.71
2926.87,-22.72
2927.37,-22.73
2927.87,-22.73
2928.37,-22.74
2928.87,-22.75
2929.37,-22.76
2929.87,-22.77
2930.37,-22.78
2930.87,-22.78
2931.37,-22.79
2931.87,-22.80
2932.37,-22.81
2932.87,-22.82
2933.37,-22.83
2933.87,-22.84
2934.37,-22.84
2934.87,-22.85
2935.37,-22.86
2935.87,-22.87
2936.37,-22.88
2936.87,-22.89
2937.37,-22.90
2937.87,-22.90
2938.37,-22.91
2938.87,-22.92
2939.37,-22.93
2939.87,-22.94
2940.37,-22.95
2940.87,-22.96
2941.37,-22.96
2941.87,-22.97
2942.37,-22.98
2942.87,-22.99
2943.37,-23.00
2943.87,-23.01
2944.37,-23.02
2944.87,-23.02
2945.37,-23.03
2945.87,-23.04
2946.37,-23.05
2946.87,-23.06
2947.37,-23.07
2947.87,-23.08
2948.37,-23.08
2948.87,-23.09
2949.37,-23.10
2949.87,-23.11
2950.37,-23.12
2950.87,-23.13
2951.37,-23.14
2951.87,-23.14
2952.37,-23.15
2952.87,-23.16
2953.37,-23.17
2953.87,-23.18
2954.37,-23.19
2954.87,-23.20
2955.37,-23.21
2955.87,-23.21
2956.37,-23.22
2956.87,-23.23
2957.37,-23.24
2957.87,-23.25
2958.37,-23.26
2958.87,-23.27
2959.37,-23.28
2959.87,-23.28
2960.37,-23.29
2960.87,-23.30
2961.37,-23.31
2961.87,-23.32
2962.37,-23.33
2962.87,-23.34
2963.37,-23.34
2963.87,-23.35
2964.37,-23.36
2964.87,-23.37
2965.37,-23.38
2965.87,-23.39
2966.37,-23.40
2966.87,-23.41
2967.37,-23.42
2967.87,-23.42
2968.37,-23.43
2968.87,-23.44
2969.37,-23.45
2969.87,-23.46
2970.37,-23.47
2970.87,-23.48
2971.37,-23.49
2971.87,-23.49
2972.37,-23.50
2972.87,-23.51
2973.37,-23.52
2973.87,-23.53
2974.37,-23.54
2974.87,-23.55
2975.37,-23.56
2975.87,-23.56
2976.37,-23.57
2976.87,-23.58
2977.37,-23.59
2977.87,-23.60
2978.37,-23.61
2978.87,-23.62
2979.37,-23.63
2979.87,-23.64
2980.37,-23.64
2980.87,-23.65
2981.37,-23.66
2981.87,-23.67
2982.37,-23.68
2982.87,-23.69
2983.37,-23.70
2983.87,-23.71
2984.37,-23.72
2984.87,-23.72
2985.37,-23.73
2985.87,-23.74
2986.37,-23.75
2986.87,-23.76
2987.37,-23.77
2987.87,-23.78
2988.37,-23.79
2988.87,-23.80
2989.37,-23.81
2989.87,-23.81
2990.37,-23.82
2990.87,-23.83
2991.37,-23.84
2991.87,-23.85
2992.37,-23.86
2992.87,-23.87
2993.37,-23.88
2993.87,-23.89
2994.37,-23.89
2994.87,-23.90
2995.37,-23.91
2995.87,-23.92
2996.37,-23.93
2996.87,-23.94
2997.37,-23.95
2997.87,-23.96
2998.37,-23.97
2998.87,-23.98
2999.37,-23.98
2999.87,-23.99
3000.38,-24.00
3000.88,-24.01
3001.38,-24.02
3001.88,-24.03
3002.38,-24.04
3002.88,-24.05
3003.38,-24.06
3003.88,-24.07
3004.38,-24.08
3004.88,-24.08
3005.38,-24.09
3005.88,-24.10
3006.38,-24.11
3006.88,-24.12
3007.38,-24.13
3007.88,-24.14
3008.38,-24.15
3008.88,-24.16
3009.38,-24.17
3009.88,-24.18
3010.38,-24.18
3010.88,-24.19
3011.38,-24.20
3011.88,-24.21
3012.38,-24.22
3012.88,-24.23
3013.38,-24.24
3013.88,-24.25
3014.38,-24.26
3014.88,-24.27
3015.38,-24.28
3015.88,-24.29
3016.38,-24.29
3016.88,-24.30
3017.38,-24.31
3017.88,-24.32
3018.38,-24.33
3018.88,-24.34
3019.38,-24.35
3019.88,-24.36
3020.38,-24.37
3020.88,-24.38
3021.38,-24.39
3021.88,-24.40
3022.38,-24.40
3022.88,-24.41
3023.38,-24.42
3023.88,-24.43
3024.38,-24.44
3024.88,-24.45
3025.38,-24.46
3025.88,-24.47
3026.38,-24.48
3026.88,-24.49
3027.38,-24.50
3027.88,-24.51
3028.38,-24.52
3028.88,-24.53
3029.38,-24.53
3029.88,-24.54
3030.38,-24.55
3030.88,-24.56
3031.38,-24.57
3031.88,-24.58
3032.38,-24.59
3032.88,-24.60
3033.38,-24.61
3033.88,-24.62
3034.38,-24.63
3034.88,-24.64
3035.38,-24.65
3035.88,-24.66
3036.38,-24.67
3036.88,-24.67
3037.38,-24.68
3037.88,-24.69
3038.38,-24.70
3038.88,-24.71
3039.38,-24.72
3039.88,-24.73
3040.38,-24.74
3040.88,-24.75
3041.38,-24.76
3041.88,-24.77
3042.38,-24.78
3042.88,-24.79
3043.38,-24.80
3043.88,-24.81
3044.38,-24.82
3044.88,-24.82
3045.38,-24.83
3045.88,-24.84
3046.38,-24.85
3046.88,-24.86
3047.38,-24.87
3047.88,-24.88
3048.38,-24.89
3048.88,-24.90
3049.38,-24.91
3049.88,-24.92
3050.38,-24.93
3050.88,-24.94
3051.38,-24.95
3051.88,-24.96
3052.38,-24.97
3052.88,-24.98
3053.38,-24.99
3053.88,-25.00
3054.38,-25.00
3054.88,-25.01
3055.38,-25.02
3055.88,-25.03
3056.38,-25.04
3056.88,-25.05
3057.38,-25.06
3057.88,-25.07
3058.38,-25.08
3058.88,-25.09
3059.38,-25.10
3059.88,-25.11
3060.38,-25.12
3060.88,-25.13
3061.38,-25.14
3061.88,-25.15
3062.38,-25.16
3062.88,-25.17
3063.38,-25.18
3063.88,-25.19
3064.38,-25.20
3064.88,-25.21
3065.38,-25.22
3065.88,-25.23
3066.38,-25.23
3066.88,-25.24
3067.38,-25.25
3067.88,-25.26
3068.38,-25.27
3068.88,-25.28
3069.38,-25.29
3069.88,-25.30
3070.38,-25.31
3070.88,-25.32
3071.38,-25.33
3071.88,-25.34
3072.38,-25.35
3072.88,-25.36
3073.38,-25.37
3073.88,-25.38
3074.38,-25.39
3074.88,-25.40
3075.38,-25.41
3075.88,-25.42
3076.38,-25.43
3076.88,-25.44
3077.38,-25.45
3077.88,-25.46
3078.38,-25.47
3078.88,-25.48
3079.38,-25.49
3079.88,-25.50
3080.39,-25.51
3080.89,-25.52
3081.39,-25.53
3081.89,-25.54
3082.39,-25.55
3082.89,-25.56
3083.39,-25.57
3083.89,-25.58
3084.39,-25.58
3084.89,-25.59
3085.39,-25.60
3085.89,-25.61
3086.39,-25.62
3086.89,-25.63
3087.39,-25.64
3087.89,-25.65
3088.39,-25.66
3088.89,-25.67
3089.39,-25.68
3089.89,-25.69
3090.39,-25.70
3090.89,-25.71
3091.39,-25.72
3091.89,-25.73
3092.39,-25.74
3092.89,-25.75
3093.39,-25.76
3093.89,-25.77
3094.39,-25.78
3094.89,-25.79
3095.39,-25.80
3095.89,-25.81
3096.39,-25.82
3096.89,-25.83
3097.39,-25.84
3097.89,-25.85
3098.39,-25.86
3098.89,-25.87
3099.39,-25.88
3099.89,-25.89
3100.39,-25.90
3100.89,-25.91
3101.39,-25.92
3101.89,-25.93
3102.39,-25.94
3102.89,-25.95
3103.39,-25.96
3103.89,-25.97
3104.39,-25.98
3104.89,-25.99
3105.39,-26.00
3105.89,-26.01
3106.39,-26.02
3106.89,-26.03
3107.39,-26.04
3107.89,-26.05
3108.39,-26.06
3108.89,-26.07
3109.39,-26.08
3109.89,-26.09
3110.39,-26.10
3110.89,-26.11
3111.39,-26.12
3111.89,-26.13
3112.39,-26.14
3112.89,-26.15
3113.39,-26.16
3113.89,-26.17
3114.39,-26.18
3114.89,-26.19
3115.39,-26.20
3115.89,-26.21
3116.39,-26.22
3116.89,-26.23
3117.39,-26.24
3117.89,-26.25
3118.39,-26.26
3118.89,-26.27
3119.39,-26.28
3119.89,-26.29
3120.39,-26.30
3120.89,-26.31
3121.39,-26.33
3121.89,-26.34
3122.39,-26.35
3122.89,-26.36
3123.39,-26.37
3123.89,-26.38
3124.39,-26.39
3124.89,-26.40
3125.39,-26.41
3125.89,-26.42
3126.39,-26.43
3126.89,-26.44
3127.39,-26.45
3127.89,-26.46
3128.39,-26.47
3128.89,-26.48
3129.39,-26.49
3129.89,-26.50
3130.39,-26.51
3130.89,-26.52
3131.39,-26.53
3131.89,-26.54
3132.39,-26.55
3132.89,-26.56
3133.39,-26.57
3133.89,-26.58
3134.39,-26.59
3134.89,-26.60
3135.39,-26.61
3135.89,-26.62
3136.39,-26.63
3136.89,-26.64
3137.39,-26.65
3137.89,-26.66
3138.39,-26.68
3138.89,-26.69
3139.39,-26.70
3139.89,-26.71
3140.39,-26.72
3140.89,-26.73
3141.39,-26.74
3141.89,-26.75
3142.39,-26.76
3142.89,-26.77
3143.39,-26.78
3143.89,-26.79
3144.39,-26.80
3144.89,-26.81
3145.39,-26.82
3145.89,-26.83
3146.39,-26.84
3146.89,-26.85
3147.39,-26.86
3147.89,-26.87
3148.39,-26.88
3148.89,-26.89
3149.39,-26.91
3149.89,-26.92
3150.39,-26.93
3150.89,-26.94
3151.39,-26.95
3151.89,-26.96
3152.39,-26.97
3152.89,-26.98
3153.39,-26.99
3153.89,-27.00
3154.39,-27.01
3154.89,-27.02
3155.39,-27.03
3155.89,-27.04
3156.39,-27.05
3156.89,-27.06
3157.39,-27.07
3157.89,-27.08
3158.39,-27.10
3158.89,-27.11
3159.39,-27.12
3159.89,-27.13
3160.40,-27.14
3160.90,-27.15
3161.40,-27.16
3161.90,-27.17
3162.40,-27.18
3162.90,-27.19
3163.40,-27.20
3163.90,-27.21
3164.40,-27.22
3164.90,-27.23
3165.40,-27.24
3165.90,-27.26
3166.40,-27.27
3166.90,-27.28
3167.40,-27.29
3167.90,-27.30
3168.40,-27.31
3168.90,-27.32
3169.40,-27.33
3169.90,-27.34
3170.40,-27.35
3170.90,-27.36
3171.40,-27.37
3171.90,-27.38
3172.40,-27.40
3172.90,-27.41
3173.40,-27.42
3173.90,-27.43
3174.40,-27.44
3174.90,-27.45
3175.40,-27.46
3175.90,-27.47
3176.40,-27.48
3176.90,-27.49
3177.40,-27.50
3177.90,-27.51
3178.40,-27.53
3178.90,-27.54
3179.40,-27.55
3179.90,-27.56
3180.40,-27.57
3180.90,-27.58
3181.40,-27.59
3181.90,-27.60
3182.40,-27.61
3182.90,-27.62
3183.40,-27.63
3183.90,-27.65
3184.40,-27.66
3184.90,-27.67
3185.40,-27.68
3185.90,-27.69
3186.40,-27.70
3186.90,-27.71
3187.40,-27.72
3187.90,-27.73
3188.40,-27.74
3188.90,-27.75
3189.40,-27.77
3189.90,-27.78
3190.40,-27.79
3190.90,-27.80
3191.40,-27.81
3191.90,-27.82
3192.40,-27.83
3192.90,-27.84
3193.40,-27.85
3193.90,-27.87
3194.40,-27.88
3194.90,-27.89
3195.40,-27.90
3195.90,-27.91
3196.40,-27.92
3196.90,-27.93
3197.40,-27.94
3197.90,-27.95
3198.40,-27.96
3198.90,-27.98
3199.40,-27.99
3199.90,-28.00
3200.40,-28.01
3200.90,-28.02
3201.40,-28.03
3201.90,-28.04
3202.40,-28.05
3202.90,-28.07
3203.40,-28.08
3203.90,-28.09
3204.40,-28.10
3204.90,-28.11
3205.40,-28.12
3205.90,-28.13
3206.40,-28.14
3206.90,-28.16
3207.40,-28.17
3207.90,-28.18
3208.40,-28.19
3208.90,-28.20
3209.40,-28.21
3209.90,-28.22
3210.40,-28.23
3210.90,-28.25
3211.40,-28.26
3211.90,-28.27
3212.40,-28.28
3212.90,-28.29
3213.40,-28.30
3213.90,-28.31
3214.40,-28.32
3214.90,-28.34
3215.40,-28.35
3215.90,-28.36
3216.40,-28.37
3216.90,-28.38
3217.40,-28.39
3217.90,-28.40
3218.40,-28.42
3218.90,-28.43
3219.40,-28.44
3219.90,-28.45
3220.40,-28.46
3220.90,-28.47
3221.40,-28.48
3221.90,-28.50
3222.40,-28.51
3222.90,-28.52
3223.40,-28.53
3223.90,-28.54
3224.40,-28.55
3224.90,-28.56
3225.40,-28.58
3225.90,-28.59
3226.40,-28.60
3226.90,-28.61
3227.40,-28.62
3227.90,-28.63
3228.40,-28.64
3228.90,-28.66
3229.40,-28.67
3229.90,-28.68
3230.40,-28.69
3230.90,-28.70
3231.40,-28.71
3231.90,-28.73
3232.40,-28.74
3232.90,-28.75
3233.40,-28.76
3233.90,-28.77
3234.40,-28.78
3234.90,-28.80
3235.40,-28.81
3235.90,-28.82
3236.40,-28.83
3236.90,-28.84
3237.40,-28.85
3237.90,-28.87
3238.40,-28.88
3238.90,-28.89
3239.40,-28.90
3239.90,-28.91
3240.41,-28.92
3240.91,-28.94
3241.41,-28.95
3241.91,-28.96
3242.41,-28.97
3242.91,-28.98
3243.41,-28.99
3243.91,-29.01
3244.41,-29.02
3244.91,-29.03
3245.41,-29.04
3245.91,-29.05
3246.41,-29.06
3246.91,-29.08
3247.41,-29.09
3247.91,-29.10
3248.41,-29.11
3248.91,-29.12
3249.41,-29.14
3249.91,-29.15
3250.41,-29.16
3250.91,-29.17
3251.41,-29.18
3251.91,-29.19
3252.41,-29.21
3252.91,-29.22
3253.41,-29.23
3253.91,-29.24
3254.41,-29.25
3254.91,-29.27
3255.41,-29.28
3255.91,-29.29
3256.41,-29.30
3256.91,-29.31
3257.41,-29.33
3257.91,-29.34
3258.41,-29.35
3258.91,-29.36
3259.41,-29.37
3259.91,-29.39
3260.41,-29.40
3260.91,-29.41
3261.41,-29.42
3261.91,-29.43
3262.41,-29.45
3262.91,-29.46
3263.41,-29.47
3263.91,-29.48
3264.41,-29.49
3264.91,-29.51
3265.41,-29.52
3265.91,-29.53
3266.41,-29.54
3266.91,-29.55
3267.41,-29.57
3267.91,-29.58
3268.41,-29.59
3268.91,-29.60
3269.41,-29.62
3269.91,-29.63
3270.41,-29.64
3270.91,-29.65
3271.41,-29.66
3271.91,-29.68
3272.41,-29.69
3272.91,-29.70
3273.41,-29.71
3273.91,-29.73
3274.41,-29.74
3274.91,-29.75
3275.41,-29.76
3275.91,-29.77
3276.41,-29.79
3276.91,-29.80
3277.41,-29.81
3277.91,-29.82
3278.41,-29.84
3278.91,-29.85
3279.41,-29.86
3279.91,-29.87
3280.41,-29.88
3280.91,-29.90
3281.41,-29.91
3281.91,-29.92
3282.41,-29.93
3282.91,-29.95
3283.41,-29.96
3283.91,-29.97
3284.41,-29.98
3284.91,-30.00
3285.41,-30.01
3285.91,-30.02
3286.41,-30.03
3286.91,-30.05
3287.41,-30.06
3287.91,-30.07
3288.41,-30.08
3288.91,-30.10
3289.41,-30.11
3289.91,-30.12
3290.41,-30.13
3290.91,-30.15
3291.41,-30.16
3291.91,-30.17
3292.41,-30.18
3292.91,-30.20
3293.41,-30.21
3293.91,-30.22
3294.41,-30.23
3294.91,-30.25
3295.41,-30.26
3295.91,-30.27
3296.41,-30.28
3296.91,-30.30
3297.41,-30.31
3297.91,-30.32
3298.41,-30.33
3298.91,-30.35
3299.41,-30.36
3299.91,-30.37
3300.41,-30.38
3300.91,-30.40
3301.41,-30.41
3301.91,-30.42
3302.41,-30.44
3302.91,-30.45
3303.41,-30.46
3303.91,-30.47
3304.41,-30.49
3304.91,-30.50
3305.41,-30.51
3305.91,-30.52
3306.41,-30.54
3306.91,-30.55
3307.41,-30.56
3307.91,-30.58
3308.41,-30.59
3308.91,-30.60
3309.41,-30.61
3309.91,-30.63
3310.41,-30.64
3310.91,-30.65
3311.41,-30.67
3311.91,-30.68
3312.41,-30.69
3312.91,-30.70
3313.41,-30.72
3313.91,-30.73
3314.41,-30.74
3314.91,-30.76
3315.41,-30.77
3315.91,-30.78
3316.41,-30.79
3316.91,-30.81
3317.41,-30.82
3317.91,-30.83
3318.41,-30.85
3318.91,-30.86
3319.41,-30.87
3319.91,-30.89
3320.42,-30.90
3320.92,-30.91
3321.42,-30.92
3321.92,-30.94
3322.42,-30.95
3322.92,-30.96
3323.42,-30.98
3323.92,-30.99
3324.42,-31.00
3324.92,-31.02
3325.42,-31.03
3325.92,-31.04
3326.42,-31.06
3326.92,-31.07
3327.42,-31.08
3327.92,-31.09
3328.42,-31.11
3328.92,-31.12
3329.42,-31.13
3329.92,-31.15
3330.42,-31.16
3330.92,-31.17
3331.42,-31.19
3331.92,-31.20
3332.42,-31.21
3332.92,-31.23
3333.42,-31.24
3333.92,-31.25
3334.42,-31.27
3334.92,-31.28
3335.42,-31.29
3335.92,-31.31
3336.42,-31.32
3336.92,-31.33
3337.42,-31.35
3337.92,-31.36
3338.42,-31.37
3338.92,-31.39
3339.42,-31.40
3339.92,-31.41
3340.42,-31.43
3340.92,-31.44
3341.42,-31.45
3341.92,-31.47
3342.42,-31.48
3342.92,-31.49
3343.42,-31.51
3343.92,-31.52
3344.42,-31.53
3344.92,-31.55
3345.42,-31.56
3345.92,-31.58
3346.42,-31.59
3346.92,-31.60
3347.42,-31.62
3347.92,-31.63
3348.42,-31.64
3348.92,-31.66
3349.42,-31.67
3349.92,-31.68
3350.42,-31.70
3350.92,-31.71
3351.42,-31.72
3351.92,-31.74
3352.42,-31.75
3352.92,-31.77
3353.42,-31.78
3353.92,-31.79
3354.42,-31.81
3354.92,-31.82
3355.42,-31.83
3355.92,-31.85
3356.42,-31.86
3356.92,-31.88
3357.42,-31.89
3357.92,-31.90
3358.42,-31.92
3358.92,-31.93
3359.42,-31.94
3359.92,-31.96
3360.42,-31.97
3360.92,-31.99
3361.42,-32.00
3361.92,-32.01
3362.42,-32.03
3362.92,-32.04
3363.42,-32.05
3363.92,-32.07
3364.42,-32.08
3364.92,-32.10
3365.42,-32.11
3365.92,-32.12
3366.42,-32.14
3366.92,-32.15
3367.42,-32.17
3367.92,-32.18
3368.42,-32.19
3368.92,-32.21
3369.42,-32.22
3369.92,-32.24
3370.42,-32.25
3370.92,-32.26
3371.42,-32.28
3371.92,-32.29
3372.42,-32.31
3372.92,-32.32
3373.42,-32.33
3373.92,-32.35
3374.42,-32.36
3374.92,-32.38
3375.42,-32.39
3375.92,-32.40
3376.42,-32.42
3376.92,-32.43
3377.42,-32.45
3377.92,-32.46
3378.42,-32.48
3378.92,-32.49
3379.42,-32.50
3379.92,-32.52
3380.42,-32.53
3380.92,-32.55
3381.42,-32.56
3381.92,-32.58
3382.42,-32.59
3382.92,-32.60
3383.42,-32.62
3383.92,-32.63
3384.42,-32.65
3384.92,-32.66
3385.42,-32.68
3385.92,-32.69
3386.42,-32.70
3386.92,-32.72
3387.42,-32.73
3387.92,-32.75
3388.42,-32.76
3388.92,-32.78
3389.42,-32.79
3389.92,-32.81
3390.42,-32.82
3390.92,-32.83
3391.42,-32.85
3391.92,-32.86
3392.42,-32.88
3392.92,-32.89
3393.42,-32.91
3393.92,-32.92
3394.42,-32.94
3394.92,-32.95
3395.42,-32.97
3395.92,-32.98
3396.42,-32.99
3396.92,-33.01
3397.42,-33.02
3397.92,-33.04
3398.42,-33.05
3398.92,-33.07
3399.42,-33.08
3399.92,-33.10
3400.43,-33.11
3400.93,-33.13
3401.43,-33.14
3401.93,-33.16
3402.43,-33.17
3402.93,-33.19
3403.43,-33.20
3403.93,-33.21
3404.43,-33.23
3404.93,-33.24
3405.43,-33.26
3405.93,-33.27
3406.43,-33.29
3406.93,-33.30
3407.43,-33.32
3407.93,-33.33
3408.43,-33.35
3408.93,-33.36
3409.43,-33.38
3409.93,-33.39
3410.43,-33.41
3410.93,-33.42
3411.43,-33.44
3411.93,-33.45
3412.43,-33.47
3412.93,-33.48
3413.43,-33.50
3413.93,-33.51
3414.43,-33.53
3414.93,-33.54
3415.43,-33.56
3415.93,-33.57
3416.43,-33.59
3416.93,-33.60
3417.43,-33.62
3417.93,-33.63
3418.43,-33.65
3418.93,-33.66
3419.43,-33.68
3419.93,-33.69
3420.43,-33.71
3420.93,-33.72
3421.43,-33.74
3421.93,-33.76
3422.43,-33.77
3422.93,-33.79
3423.43,-33.80
3423.93,-33.82
3424.43,-33.83
3424.93,-33.85
3425.43,-33.86
3425.93,-33.88
3426.43,-33.89
3426.93,-33.91
3427.43,-33.92
3427.93,-33.94
3428.43,-33.95
3428.93,-33.97
3429.43,-33.99
3429.93,-34.00
3430.43,-34.02
3430.93,-34.03
3431.43,-34.05
3431.93,-34.06
3432.43,-34.08
3432.93,-34.09
3433.43,-34.11
3433.93,-34.12
3434.43,-34.14
3434.93,-34.16
3435.43,-34.17
3435.93,-34.19
3436.43,-34.20
3436.93,-34.22
3437.43,-34.23
3437.93,-34.25
3438.43,-34.27
3438.93,-34.28
3439.43,-34.30
3439.93,-34.31
3440.43,-34.33
3440.93,-34.34
3441.43,-34.36
3441.93,-34.38
3442.43,-34.39
3442.93,-34.41
3443.43,-34.42
3443.93,-34.44
3444.43,-34.45
3444.93,-34.47
3445.43,-34.49
3445.93,-34.50
3446.43,-34.52
3446.93,-34.53
3447.43,-34.55
3447.93,-34.57
3448.43,-34.58
3448.93,-34.60
3449.43,-34.61
3449.93,-34.63
3450.43,-34.65
3450.93,-34.66
3451.43,-34.68
3451.93,-34.69
3452.43,-34.71
3452.93,-34.73
3453.43,-34.74
3453.93,-34.76
3454.43,-34.77
3454.93,-34.79
3455.43,-34.81
3455.93,-34.82
3456.43,-34.84
3456.93,-34.85
3457.43,-34.87
3457.93,-34.89
3458.43,-34.90
3458.93,-34.92
3459.43,-34.94
3459.93,-34.95
3460.43,-34.97
3460.93,-34.98
3461.43,-35.00
3461.93,-35.02
3462.43,-35.03
3462.93,-35.05
3463.43,-35.07
3463.93,-35.08
3464.43,-35.10
3464.93,-35.12
3465.43,-35.13
3465.93,-35.15
3466.43,-35.16
3466.93,-35.18
3467.43,-35.20
3467.93,-35.21
3468.43,-35.23
3468.93,-35.25
3469.43,-35.26
3469.93,-35.28
3470.43,-35.30
3470.93,-35.31
3471.43,-35.33
3471.93,-35.35
3472.43,-35.36
3472.93,-35.38
3473.43,-35.40
3473.93,-35.41
3474.43,-35.43
3474.93,-35.45
3475.43,-35.46
3475.93,-35.48
3476.43,-35.50
3476.93,-35.51
3477.43,-35.53
3477.93,-35.55
3478.43,-35.56
3478.93,-35.58
3479.43,-35.60
3479.93,-35.62
3480.44,-35.63
3480.94,-35.65
3481.44,-35.67
3481.94,-35.68
3482.44,-35.70
3482.94,-35.72
3483.44,-35.73
3483.94,-35.75
3484.44,-35.77
3484.94,-35.79
3485.44,-35.80
3485.94,-35.82
3486.44,-35.84
3486.94,-35.85
3487.44,-35.87
3487.94,-35.89
3488.44,-35.90
3488.94,-35.92
3489.44,-35.94
3489.94,-35.96
3490.44,-35.97
3490.94,-35.99
3491.44,-36.01
3491.94,-36.03
3492.44,-36.04
3492.94,-36.06
3493.44,-36.08
3493.94,-36.09
3494.44,-36.11
3494.94,-36.13
3495.44,-36.15
3495.94,-36.16
3496.44,-36.18
3496.94,-36.20
3497.44,-36.22
3497.94,-36.23
3498.44,-36.25
3498.94,-36.27
3499.44,-36.29
3499.94,-36.30
3500.44,-36.32
3500.94,-36.34
3501.44,-36.36
3501.94,-36.37
3502.44,-36.39
3502.94,-36.41
3503.44,-36.43
3503.94,-36.45
3504.44,-36.46
3504.94,-36.48
3505.44,-36.50
3505.94,-36.52
3506.44,-36.53
3506.94,-36.55
3507.44,-36.57
3507.94,-36.59
3508.44,-36.60
3508.94,-36.62
3509.44,-36.64
3509.94,-36.66
3510.44,-36.68
3510.94,-36.69
3511.44,-36.71
3511.94,-36.73
3512.44,-36.75
3512.94,-36.77
3513.44,-36.78
3513.94,-36.80
3514.44,-36.82
3514.94,-36.84
3515.44,-36.86
3515.94,-36.87
3516.44,-36.89
3516.94,-36.91
3517.44,-36.93
3517.94,-36.95
3518.44,-36.97
3518.94,-36.98
3519.44,-37.00
3519.94,-37.02
3520.44,-37.04
3520.94,-37.06
3521.44,-37.08
3521.94,-37.09
3522.44,-37.11
3522.94,-37.13
3523.44,-37.15
3523.94,-37.17
3524.44,-37.19
3524.94,-37.20
3525.44,-37.22
3525.94,-37.24
3526.44,-37.26
3526.94,-37.28
3527.44,-37.30
3527.94,-37.32
3528.44,-37.33
3528.94,-37.35
3529.44,-37.37
3529.94,-37.39
3530.44,-37.41
3530.94,-37.43
3531.44,-37.45
3531.94,-37.46
3532.44,-37.48
3532.94,-37.50
3533.44,-37.52
3533.94,-37.54
3534.44,-37.56
3534.94,-37.58
3535.44,-37.60
3535.94,-37.61
3536.44,-37.63
3536.94,-37.65
3537.44,-37.67
3537.94,-37.69
3538.44,-37.71
3538.94,-37.73
3539.44,-37.75
3539.94,-37.77
3540.44,-37.79
3540.94,-37.80
3541.44,-37.82
3541.94,-37.84
3542.44,-37.86
3542.94,-37.88
3543.44,-37.90
3543.94,-37.92
3544.44,-37.94
3544.94,-37.96
3545.44,-37.98
3545.94,-38.00
3546.44,-38.02
3546.94,-38.04
3547.44,-38.05
3547.94,-38.07
3548.44,-38.09
3548.94,-38.11
3549.44,-38.13
3549.94,-38.15
3550.44,-38.17
3550.94,-38.19
3551.44,-38.21
3551.94,-38.23
3552.44,-38.25
3552.94,-38.27
3553.44,-38.29
3553.94,-38.31
3554.44,-38.33
3554.94,-38.35
3555.44,-38.37
3555.94,-38.39
3556.44,-38.41
3556.94,-38.43
3557.44,-38.45
3557.94,-38.47
3558.44,-38.49
3558.94,-38.51
3559.44,-38.53
3559.94,-38.55
3560.45,-38.57
3560.95,-38.59
3561.45,-38.61
3561.95,-38.63
3562.45,-38.65
3562.95,-38.67
3563.45,-38.69
3563.95,-38.71
3564.45,-38.73
3564.95,-38.75
3565.45,-38.77
3565.95,-38.79
3566.45,-38.81
3566.95,-38.83
3567.45,-38.85
3567.95,-38.87
3568.45,-38.89
3568.95,-38.91
3569.45,-38.93
3569.95,-38.95
3570.45,-38.97
3570.95,-38.99
3571.45,-39.01
3571.95,-39.03
3572.45,-39.05
3572.95,-39.07
3573.45,-39.09
3573.95,-39.11
3574.45,-39.13
3574.95,-39.15
3575.45,-39.17
3575.95,-39.19
3576.45,-39.21
3576.95,-39.24
3577.45,-39.26
3577.95,-39.28
3578.45,-39.30
3578.95,-39.32
3579.45,-39.34
3579.95,-39.36
3580.45,-39.38
3580.95,-39.40
3581.45,-39.42
3581.95,-39.44
3582.45,-39.46
3582.95,-39.49
3583.45,-39.51
3583.95,-39.53
3584.45,-39.55
3584.95,-39.57
3585.45,-39.59
3585.95,-39.61
3586.45,-39.63
3586.95,-39.65
3587.45,-39.67
3587.95,-39.70
3588.45,-39.72
3588.95,-39.74
3589.45,-39.76
3589.95,-39.78
3590.45,-39.80
3590.95,-39.82
3591.45,-39.85
3591.95,-39.87
3592.45,-39.89
3592.95,-39.91
3593.45,-39.93
3593.95,-39.95
3594.45,-39.97
3594.95,-40.00
3595.45,-40.02
3595.95,-40.04
3596.45,-40.06
3596.95,-40.08
3597.45,-40.10
3597.95,-40.13
3598.45,-40.15
3598.95,-40.17
3599.45,-40.19
3599.95,-40.21
3600.45,-40.24
3600.95,-40.26
3601.45,-40.28
3601.95,-40.30
3602.45,-40.32
3602.95,-40.34
3603.45,-40.37
3603.95,-40.39
3604.45,-40.41
3604.95,-40.43
3605.45,-40.46
3605.95,-40.48
3606.45,-40.50
3606.95,-40.52
3607.45,-40.54
3607.95,-40.57
3608.45,-40.59
3608.95,-40.61
3609.45,-40.63
3609.95,-40.66
3610.45,-40.68
3610.95,-40.70
3611.45,-40.72
3611.95,-40.75
3612.45,-40.77
3612.95,-40.79
3613.45,-40.81
3613.95,-40.84
3614.45,-40.86
3614.95,-40.88
3615.45,-40.90
3615.95,-40.93
3616.45,-40.95
3616.95,-40.97
3617.45,-41.00
3617.95,-41.02
3618.45,-41.04
3618.95,-41.06
3619.45,-41.09
3619.95,-41.11
3620.45,-41.13
3620.95,-41.16
3621.45,-41.18
3621.95,-41.20
3622.45,-41.23
3622.95,-41.25
3623.45,-41.27
3623.95,-41.29
3624.45,-41.32
3624.95,-41.34
3625.45,-41.36
3625.95,-41.39
3626.45,-41.41
3626.95,-41.43
3627.45,-41.46
3627.95,-41.48
3628.45,-41.51
3628.95,-41.53
3629.45,-41.55
3629.95,-41.58
3630.45,-41.60
3630.95,-41.62
3631.45,-41.65
3631.95,-41.67
3632.45,-41.69
3632.95,-41.72
3633.45,-41.74
3633.95,-41.77
3634.45,-41.79
3634.95,-41.81
3635.45,-41.84
3635.95,-41.86
3636.45,-41.89
3636.95,-41.91
3637.45,-41.93
3637.95,-41.96
3638.45,-41.98
3638.95,-42.01
3639.45,-42.03
3639.95,-42.05
3640.46,-42.08
3640.96,-42.10
3641.46,-42.13
3641.96,-42.15
3642.46,-42.18
3642.96,-42.20
3643.46,-42.23
3643.96,-42.25
3644.46,-42.27
3644.96,-42.30
3645.46,-42.32
3645.96,-42.35
3646.46,-42.37
3646.96,-42.40
3647.46,-42.42
3647.96,-42.45
3648.46,-42.47
3648.96,-42.50
3649.46,-42.52
3649.96,-42.55
3650.46,-42.57
3650.96,-42.60
3651.46,-42.62
3651.96,-42.65
3652.46,-42.67
3652.96,-42.70
3653.46,-42.72
3653.96,-42.75
3654.46,-42.77
3654.96,-42.80
3655.46,-42.82
3655.96,-42.85
3656.46,-42.87
3656.96,-42.90
3657.46,-42.92
3657.96,-42.95
3658.46,-42.98
3658.96,-43.00
3659.46,-43.03
3659.96,-43.05
3660.46,-43.08
3660.96,-43.10
3661.46,-43.13
3661.96,-43.16
3662.46,-43.18
3662.96,-43.21
3663.46,-43.23
3663.96,-43.26
3664.46,-43.29
3664.96,-43.31
3665.46,-43.34
3665.96,-43.36
3666.46,-43.39
3666.96,-43.42
3667.46,-43.44
3667.96,-43.47
3668.46,-43.49
3668.96,-43.52
3669.46,-43.55
3669.96,-43.57
3670.46,-43.60
3670.96,-43.63
3671.46,-43.65
3671.96,-43.68
3672.46,-43.71
3672.96,-43.73
3673.46,-43.76
3673.96,-43.79
3674.46,-43.81
3674.96,-43.84
3675.46,-43.87
3675.96,-43.89
3676.46,-43.92
3676.96,-43.95
3677.46,-43.97
3677.96,-44.00
3678.46,-44.03
3678.96,-44.06
3679.46,-44.08
3679.96,-44.11
3680.46,-44.14
3680.96,-44.17
3681.46,-44.19
3681.96,-44.22
3682.46,-44.25
3682.96,-44.28
3683.46,-44.30
3683.96,-44.33
3684.46,-44.36
3684.96,-44.39
3685.46,-44.41
3685.96,-44.44
3686.46,-44.47
3686.96,-44.50
3687.46,-44.52
3687.96,-44.55
3688.46,-44.58
3688.96,-44.61
3689.46,-44.64
3689.96,-44.66
3690.46,-44.69
3690.96,-44.72
3691.46,-44.75
3691.96,-44.78
3692.46,-44.81
3692.96,-44.83
3693.46,-44.86
3693.96,-44.89
3694.46,-44.92
3694.96,-44.95
3695.46,-44.98
3695.96,-45.01
3696.46,-45.03
3696.96,-45.06
3697.46,-45.09
3697.96,-45.12
3698.46,-45.15
3698.96,-45.18
3699.46,-45.21
3699.96,-45.24
3700.46,-45.27
3700.96,-45.29
3701.46,-45.32
3701.96,-45.35
3702.46,-45.38
3702.96,-45.41
3703.46,-45.44
3703.96,-45.47
3704.46,-45.50
3704.96,-45.53
3705.46,-45.56
3705.96,-45.59
3706.46,-45.62
3706.96,-45.65
3707.46,-45.68
3707.96,-45.71
3708.46,-45.74
3708.96,-45.77
3709.46,-45.80
3709.96,-45.83
3710.46,-45.86
3710.96,-45.89
3711.46,-45.92
3711.96,-45.95
3712.46,-45.98
3712.96,-46.01
3713.46,-46.04
3713.96,-46.07
3714.46,-46.10
3714.96,-46.13
3715.46,-46.16
3715.96,-46.19
3716.46,-46.22
3716.96,-46.25
3717.46,-46.28
3717.96,-46.32
3718.46,-46.35
3718.96,-46.38
3719.46,-46.41
3719.96,-46.44
3720.47,-46.47
3720.97,-46.50
3721.47,-46.53
3721.97,-46.56
3722.47,-46.60
3722.97,-46.63
3723.47,-46.66
3723.97,-46.69
3724.47,-46.72
3724.97,-46.75
3725.47,-46.78
3725.97,-46.82
3726.47,-46.85
3726.97,-46.88
3727.47,-46.91
3727.97,-46.94
3728.47,-46.98
3728.97,-47.01
3729.47,-47.04
3729.97,-47.07
3730.47,-47.11
3730.97,-47.14
3731.47,-47.17
3731.97,-47.20
3732.47,-47.24
3732.97,-47.27
3733.47,-47.30
3733.97,-47.33
3734.47,-47.37
3734.97,-47.40
3735.47,-47.43
3735.97,-47.46
3736.47,-47.50
3736.97,-47.53
3737.47,-47.56
3737.97,-47.60
3738.47,-47.63
3738.97,-47.66
3739.47,-47.70
3739.97,-47.73
3740.47,-47.76
3740.97,-47.80
3741.47,-47.83
3741.97,-47.87
3742.47,-47.90
3742.97,-47.93
3743.47,-47.97
3743.97,-48.00
3744.47,-48.03
3744.97,-48.07
3745.47,-48.10
3745.97,-48.14
3746.47,-48.17
3746.97,-48.21
3747.47,-48.24
3747.97,-48.27
3748.47,-48.31
3748.97,-48.34
3749.47,-48.38
3749.97,-48.41
3750.47,-48.45
3750.97,-48.48
3751.47,-48.52
3751.97,-48.55
3752.47,-48.59
3752.97,-48.62
3753.47,-48.66
3753.97,-48.69
3754.47,-48.73
3754.97,-48.77
3755.47,-48.80
3755.97,-48.84
3756.47,-48.87
3756.97,-48.91
3757.47,-48.94
3757.97,-48.98
3758.47,-49.02
3758.97,-49.05
3759.47,-49.09
3759.97,-49.12
3760.47,-49.16
3760.97,-49.20
3761.47,-49.23
3761.97,-49.27
3762.47,-49.31
3762.97,-49.34
3763.47,-49.38
3763.97,-49.42
3764.47,-49.45
3764.97,-49.49
3765.47,-49.53
3765.97,-49.57
3766.47,-49.60
3766.97,-49.64
3767.47,-49.68
3767.97,-49.71
3768.47,-49.75
3768.97,-49.79
3769.47,-49.83
3769.97,-49.87
3770.47,-49.90
3770.97,-49.94
3771.47,-49.98
3771.97,-50.02
3772.47,-50.06
3772.97,-50.09
3773.47,-50.13
3773.97,-50.17
3774.47,-50.21
3774.97,-50.25
3775.47,-50.29
3775.97,-50.33
3776.47,-50.36
3776.97,-50.40
3777.47,-50.44
3777.97,-50.48
3778.47,-50.52
3778.97,-50.56
3779.47,-50.60
3779.97,-50.64
3780.47,-50.68
3780.97,-50.72
3781.47,-50.76
3781.97,-50.80
3782.47,-50.84
3782.97,-50.88
3783.47,-50.92
3783.97,-50.96
3784.47,-51.00
3784.97,-51.04
3785.47,-51.08
3785.97,-51.12
3786.47,-51.16
3786.97,-51.20
3787.47,-51.24
3787.97,-51.28
3788.47,-51.33
3788.97,-51.37
3789.47,-51.41
3789.97,-51.45
3790.47,-51.49
3790.97,-51.53
3791.47,-51.57
3791.97,-51.62
3792.47,-51.66
3792.97,-51.70
3793.47,-51.74
3793.97,-51.78
3794.47,-51.83
3794.97,-51.87
3795.47,-51.91
3795.97,-51.95
3796.47,-52.00
3796.97,-52.04
3797.47,-52.08
3797.97,-52.13
3798.47,-52.17
3798.97,-52.21
3799.47,-52.25
3799.97,-52.30
3800.48,-52.34
3800.98,-52.39
3801.48,-52.43
3801.98,-52.47
3802.48,-52.52
3802.98,-52.56
3803.48,-52.61
3803.98,-52.65
3804.48,-52.69
3804.98,-52.74
3805.48,-52.78
3805.98,-52.83
3806.48,-52.87
3806.98,-52.92
3807.48,-52.96
3807.98,-53.01
3808.48,-53.05
3808.98,-53.10
3809.48,-53.15
3809.98,-53.19
3810.48,-53.24
3810.98,-53.28
3811.48,-53.33
3811.98,-53.37
3812.48,-53.42
3812.98,-53.47
3813.48,-53.51
3813.98,-53.56
3814.48,-53.61
3814.98,-53.65
3815.48,-53.70
3815.98,-53.75
3816.48,-53.80
3816.98,-53.84
3817.48,-53.89
3817.98,-53.94
3818.48,-53.99
3818.98,-54.04
3819.48,-54.08
3819.98,-54.13
3820.48,-54.18
3820.98,-54.23
3821.48,-54.28
3821.98,-54.33
3822.48,-54.37
3822.98,-54.42
3823.48,-54.47
3823.98,-54.52
3824.48,-54.57
3824.98,-54.62
3825.48,-54.67
3825.98,-54.72
3826.48,-54.77
3826.98,-54.82
3827.48,-54.87
3827.98,-54.92
3828.48,-54.97
3828.98,-55.02
3829.48,-55.07
3829.98,-55.13
3830.48,-55.18
3830.98,-55.23
3831.48,-55.28
3831.98,-55.33
3832.48,-55.38
3832.98,-55.44
3833.48,-55.49
3833.98,-55.54
3834.48,-55.59
3834.98,-55.64
3835.48,-55.70
3835.98,-55.75
3836.48,-55.80
3836.98,-55.86
3837.48,-55.91
3837.98,-55.96
3838.48,-56.02
3838.98,-56.07
3839.48,-56.13
3839.98,-56.18
3840.48,-56.23
3840.98,-56.29
3841.48,-56.34
3841.98,-56.40
3842.48,-56.45
3842.98,-56.51
3843.48,-56.56
3843.98,-56.62
3844.48,-56.68
3844.98,-56.73
3845.48,-56.79
3845.98,-56.84
3846.48,-56.90
3846.98,-56.96
3847.48,-57.01
3847.98,-57.07
3848.48,-57.13
3848.98,-57.19
3849.48,-57.24
3849.98,-57.30
3850.48,-57.36
3850.98,-57.42
3851.48,-57.48
3851.98,-57.54
3852.48,-57.59
3852.98,-57.65
3853.48,-57.71
3853.98,-57.77
3854.48,-57.83
3854.98,-57.89
3855.48,-57.95
3855.98,-58.01
3856.48,-58.07
3856.98,-58.13
3857.48,-58.19
3857.98,-58.26
3858.48,-58.32
3858.98,-58.38
3859.48,-58.44
3859.98,-58.50
3860.48,-58.56
3860.98,-58.63
3861.48,-58.69
3861.98,-58.75
3862.48,-58.82
3862.98,-58.88
3863.48,-58.94
3863.98,-59.01
3864.48,-59.07
3864.98,-59.13
3865.48,-59.20
3865.98,-59.26
3866.48,-59.33
3866.98,-59.39
3867.48,-59.46
3867.98,-59.52
3868.48,-59.59
3868.98,-59.66
3869.48,-59.72
3869.98,-59.79
3870.48,-59.86
3870.98,-59.92
3871.48,-59.99
3871.98,-60.06
3872.48,-60.13
3872.98,-60.20
3873.48,-60.26
3873.98,-60.33
3874.48,-60.40
3874.98,-60.47
3875.48,-60.54
3875.98,-60.61
3876.48,-60.68
3876.98,-60.75
3877.48,-60.82
3877.98,-60.89
3878.48,-60.97
3878.98,-61.04
3879.48,-61.11
3879.98,-61.18
3880.49,-61.25
3880.99,-61.33
3881.49,-61.40
3881.99,-61.47
3882.49,-61.55
3882.99,-61.62
3883.49,-61.70
3883.99,-61.77
3884.49,-61.85
3884.99,-61.92
3885.49,-62.00
3885.99,-62.07
3886.49,-62.15
3886.99,-62.23
3887.49,-62.30
3887.99,-62.38
3888.49,-62.46
3888.99,-62.54
3889.49,-62.62
3889.99,-62.69
3890.49,-62.77
3890.99,-62.85
3891.49,-62.93
3891.99,-63.01
3892.49,-63.09
3892.99,-63.17
3893.49,-63.26
3893.99,-63.34
3894.49,-63.42
3894.99,-63.50
3895.49,-63.59
3895.99,-63.67
3896.49,-63.75
3896.99,-63.84
3897.49,-63.92
3897.99,-64.01
3898.49,-64.09
3898.99,-64.18
3899.49,-64.26
3899.99,-64.35
3900.49,-64.44
3900.99,-64.53
3901.49,-64.61
3901.99,-64.70
3902.49,-64.79
3902.99,-64.88
3903.49,-64.97
3903.99,-65.06
3904.49,-65.15
3904.99,-65.24
3905.49,-65.33
3905.99,-65.43
3906.49,-65.52
3906.99,-65.61
3907.49,-65.71
3907.99,-65.80
3908.49,-65.89
3908.99,-65.99
3909.49,-66.09
3909.99,-66.18
3910.49,-66.28
3910.99,-66.38
3911.49,-66.47
3911.99,-66.57
3912.49,-66.67
3912.99,-66.77
3913.49,-66.87
3913.99,-66.97
3914.49,-67.07
3914.99,-67.17
3915.49,-67.28
3915.99,-67.38
3916.49,-67.48
3916.99,-67.59
3917.49,-67.69
3917.99,-67.80
3918.49,-67.91
3918.99,-68.01
3919.49,-68.12
3919.99,-68.23
3920.49,-68.34
3920.99,-68.45
3921.49,-68.56
3921.99,-68.67
3922.49,-68.78
3922.99,-68.89
3923.49,-69.01
3923.99,-69.12
3924.49,-69.23
3924.99,-69.35
3925.49,-69.47
3925.99,-69.58
3926.49,-69.70
3926.99,-69.82
3927.49,-69.94
3927.99,-70.06
3928.49,-70.18
3928.99,-70.30
3929.49,-70.42
3929.99,-70.55
3930.49,-70.67
3930.99,-70.80
3931.49,-70.92
3931.99,-71.05
3932.49,-71.18
3932.99,-71.31
3933.49,-71.44
3933.99,-71.57
3934.49,-71.70
3934.99,-71.84
3935.49,-71.97
3935.99,-72.11
3936.49,-72.24
3936.99,-72.38
3937.49,-72.52
3937.99,-72.66
3938.49,-72.80
3938.99,-72.94
3939.49,-73.08
3939.99,-73.23
3940.49,-73.37
3940.99,-73.52
3941.49,-73.67
3941.99,-73.82
3942.49,-73.97
3942.99,-74.12
3943.49,-74.27
3943.99,-74.43
3944.49,-74.58
3944.99,-74.74
3945.49,-74.90
3945.99,-75.06
3946.49,-75.22
3946.99,-75.38
3947.49,-75.55
3947.99,-75.71
3948.49,-75.88
3948.99,-76.05
3949.49,-76.22
3949.99,-76.39
3950.49,-76.57
3950.99,-76.75
3951.49,-76.92
3951.99,-77.10
3952.49,-77.29
3952.99,-77.47
3953.49,-77.66
3953.99,-77.84
3954.49,-78.03
3954.99,-78.22
3955.49,-78.42
3955.99,-78.62
3956.49,-78.81
3956.99,-79.01
3957.49,-79.22
3957.99,-79.42
3958.49,-79.63
3958.99,-79.84
3959.49,-80.06
3959.99,-80.27
3960.50,-80.49
3961.00,-80.71
3961.50,-80.94
3962.00,-81.16
3962.50,-81.39
3963.00,-81.63
3963.50,-81.86
3964.00,-82.10
3964.50,-82.34
3965.00,-82.59
3965.50,-82.84
3966.00,-83.09
3966.50,-83.35
3967.00,-83.61
3967.50,-83.88
3968.00,-84.15
3968.50,-84.42
3969.00,-84.70
3969.50,-84.98
3970.00,-85.27
3970.50,-85.56
3971.00,-85.86
3971.50,-86.16
3972.00,-86.47
3972.50,-86.78
3973.00,-87.10
3973.50,-87.42
3974.00,-87.76
3974.50,-88.09
3975.00,-88.44
3975.50,-88.79
3976.00,-89.15
3976.50,-89.51
3977.00,-89.88
3977.50,-90.27
3978.00,-90.66
3978.50,-91.06
3979.00,-91.47
3979.50,-91.88
3980.00,-92.31
3980.50,-92.75
3981.00,-93.20
3981.50,-93.67
3982.00,-94.14
3982.50,-94.63
3983.00,-95.14
3983.50,-95.65
3984.00,-96.19
3984.50,-96.74
3985.00,-97.31
3985.50,-97.90
3986.00,-98.51
3986.50,-99.14
3987.00,-99.80
3987.50,-100.48
3988.00,-101.19
3988.50,-101.93
3989.00,-102.70
3989.50,-103.51
3990.00,-104.35
3990.50,-105.25
3991.00,-106.18
3991.50,-107.18
3992.00,-108.23
3992.50,-109.35
3993.00,-110.55
3993.50,-111.84
3994.00,-113.23
3994.50,-114.74
3995.00,-116.40
3995.50,-118.23
3996.00,-120.27
3996.50,-122.59
3997.00,-125.27
3997.50,-128.44
3998.00,-132.31
3998.50,-137.31
3999.00,-144.35
3999.50,-156.40
4000.00,-inf
